File: olivine/FTIR/SC1-2-800C-7hr-c04-copper.CSV
4.493401e+002,5.316259e-001
4.551256e+002,3.753243e-001
4.609111e+002,1.143447e+000
4.666966e+002,4.069683e-001
4.724821e+002,6.000000e+000
4.782676e+002,1.068096e+000
4.840531e+002,6.000000e+000
4.898386e+002,1.286946e+000
4.956241e+002,4.756949e-001
5.014096e+002,6.836975e-001
5.071951e+002,7.193288e-001
5.129806e+002,1.196503e+000
5.187661e+002,1.327228e+000
5.245516e+002,6.000000e+000
5.303371e+002,6.785158e-001
5.361226e+002,2.698843e+000
5.419081e+002,1.532121e+000
5.476935e+002,6.000000e+000
5.534791e+002,1.135392e+000
5.592646e+002,9.328352e-001
5.650500e+002,1.523330e+000
5.708356e+002,1.419763e+000
5.766210e+002,1.418992e+000
5.824066e+002,2.161936e+000
5.881920e+002,1.766197e+000
5.939775e+002,1.734946e+000
5.997631e+002,1.918989e+000
6.055485e+002,1.890951e+000
6.113340e+002,1.891969e+000
6.171195e+002,2.036737e+000
6.229050e+002,1.982674e+000
6.286905e+002,1.999520e+000
6.344760e+002,1.987458e+000
6.402615e+002,2.037055e+000
6.460470e+002,1.985001e+000
6.518325e+002,2.054912e+000
6.576180e+002,1.953305e+000
6.634035e+002,1.978003e+000
6.691890e+002,1.775956e+000
6.749745e+002,2.052907e+000
6.807599e+002,2.117033e+000
6.865455e+002,1.873997e+000
6.923309e+002,2.036963e+000
6.981165e+002,1.897520e+000
7.039020e+002,1.985743e+000
7.096874e+002,1.946612e+000
7.154730e+002,2.094047e+000
7.212584e+002,1.942289e+000
7.270439e+002,1.923771e+000
7.328294e+002,2.039155e+000
7.386149e+002,1.886714e+000
7.444004e+002,2.024414e+000
7.501859e+002,1.975224e+000
7.559714e+002,1.900471e+000
7.617569e+002,1.933774e+000
7.675424e+002,1.965661e+000
7.733279e+002,1.930976e+000
7.791134e+002,1.956200e+000
7.848989e+002,2.015181e+000
7.906844e+002,2.043029e+000
7.964699e+002,1.898056e+000
8.022554e+002,2.021258e+000
8.080409e+002,1.924982e+000
8.138264e+002,1.884138e+000
8.196119e+002,1.966343e+000
8.253973e+002,1.946192e+000
8.311829e+002,2.095103e+000
8.369683e+002,1.955192e+000
8.427538e+002,1.964596e+000
8.485394e+002,1.989074e+000
8.543248e+002,2.041371e+000
8.601104e+002,1.974631e+000
8.658958e+002,1.980991e+000
8.716813e+002,1.994164e+000
8.774668e+002,1.994947e+000
8.832523e+002,2.038592e+000
8.890378e+002,2.012872e+000
8.948233e+002,2.155548e+000
9.006088e+002,2.091436e+000
9.063943e+002,2.058459e+000
9.121798e+002,2.064156e+000
9.179653e+002,2.118960e+000
9.237508e+002,2.092060e+000
9.295363e+002,2.047891e+000
9.353218e+002,2.120992e+000
9.411072e+002,2.084668e+000
9.468928e+002,2.067297e+000
9.526783e+002,2.092135e+000
9.584637e+002,1.996288e+000
9.642493e+002,1.960028e+000
9.700347e+002,2.018572e+000
9.758203e+002,2.073805e+000
9.816057e+002,2.071675e+000
9.873912e+002,2.135505e+000
9.931768e+002,1.966779e+000
9.989622e+002,2.040925e+000
1.004748e+003,2.113816e+000
1.010533e+003,2.042118e+000
1.016319e+003,2.016895e+000
1.022104e+003,1.986206e+000
1.027890e+003,2.050382e+000
1.033675e+003,2.088216e+000
1.039461e+003,2.072729e+000
1.045246e+003,2.166151e+000
1.051032e+003,2.094061e+000
1.056817e+003,2.168398e+000
1.062603e+003,2.084547e+000
1.068388e+003,2.069686e+000
1.074174e+003,2.190089e+000
1.079959e+003,2.088317e+000
1.085745e+003,2.180045e+000
1.091530e+003,2.114638e+000
1.097316e+003,2.049092e+000
1.103101e+003,2.129949e+000
1.108887e+003,2.137767e+000
1.114672e+003,2.123866e+000
1.120458e+003,2.101404e+000
1.126243e+003,2.144733e+000
1.132029e+003,2.132462e+000
1.137814e+003,2.135633e+000
1.143600e+003,2.136324e+000
1.149385e+003,2.115717e+000
1.155171e+003,2.185277e+000
1.160956e+003,2.188953e+000
1.166742e+003,2.094846e+000
1.172527e+003,2.196572e+000
1.178313e+003,2.183153e+000
1.184098e+003,2.299605e+000
1.189884e+003,2.108265e+000
1.195669e+003,2.140416e+000
1.201455e+003,2.186253e+000
1.207240e+003,2.130824e+000
1.213026e+003,2.125741e+000
1.218811e+003,2.224540e+000
1.224597e+003,2.167627e+000
1.230382e+003,2.190800e+000
1.236167e+003,2.160761e+000
1.241953e+003,2.280933e+000
1.247739e+003,2.165019e+000
1.253524e+003,2.209003e+000
1.259310e+003,2.113857e+000
1.265095e+003,2.150511e+000
1.270880e+003,2.119301e+000
1.276666e+003,2.170796e+000
1.282452e+003,2.179870e+000
1.288237e+003,2.203518e+000
1.294022e+003,2.098126e+000
1.299808e+003,2.271765e+000
1.305594e+003,2.143932e+000
1.311379e+003,2.190753e+000
1.317164e+003,2.189131e+000
1.322950e+003,2.163761e+000
1.328735e+003,2.194598e+000
1.334521e+003,2.239542e+000
1.340307e+003,2.091173e+000
1.346092e+003,2.141943e+000
1.351877e+003,2.170306e+000
1.357663e+003,2.153637e+000
1.363448e+003,2.243805e+000
1.369234e+003,2.152185e+000
1.375019e+003,2.170851e+000
1.380805e+003,2.194582e+000
1.386590e+003,2.128254e+000
1.392376e+003,2.127654e+000
1.398161e+003,2.114950e+000
1.403947e+003,2.151448e+000
1.409732e+003,2.147131e+000
1.415518e+003,2.127117e+000
1.421303e+003,2.152603e+000
1.427089e+003,2.196483e+000
1.432874e+003,2.134123e+000
1.438660e+003,2.157409e+000
1.444445e+003,2.151441e+000
1.450231e+003,2.169737e+000
1.456016e+003,2.068113e+000
1.461802e+003,2.110115e+000
1.467587e+003,2.172150e+000
1.473373e+003,2.110794e+000
1.479158e+003,2.113591e+000
1.484944e+003,2.110414e+000
1.490729e+003,2.090280e+000
1.496515e+003,2.099913e+000
1.502300e+003,2.098237e+000
1.508086e+003,1.850415e+000
1.513871e+003,2.276284e+000
1.519657e+003,1.998891e+000
1.525442e+003,2.021057e+000
1.531228e+003,2.055793e+000
1.537013e+003,2.045247e+000
1.542799e+003,2.079260e+000
1.548584e+003,2.132434e+000
1.554370e+003,2.184742e+000
1.560155e+003,2.028629e+000
1.565941e+003,2.117977e+000
1.571726e+003,2.109073e+000
1.577512e+003,2.124398e+000
1.583297e+003,2.126433e+000
1.589083e+003,2.161047e+000
1.594868e+003,2.172618e+000
1.600654e+003,2.190198e+000
1.606439e+003,2.166169e+000
1.612225e+003,2.119933e+000
1.618010e+003,2.276393e+000
1.623796e+003,2.149994e+000
1.629581e+003,2.117237e+000
1.635367e+003,2.081626e+000
1.641152e+003,2.148191e+000
1.646938e+003,2.090050e+000
1.652723e+003,2.338736e+000
1.658509e+003,2.186464e+000
1.664294e+003,2.189380e+000
1.670080e+003,2.093228e+000
1.675865e+003,2.241255e+000
1.681651e+003,2.075185e+000
1.687436e+003,2.258968e+000
1.693222e+003,2.081361e+000
1.699007e+003,2.204295e+000
1.704793e+003,2.104219e+000
1.710578e+003,2.108338e+000
1.716364e+003,2.176985e+000
1.722149e+003,2.205433e+000
1.727935e+003,2.185748e+000
1.733720e+003,2.079562e+000
1.739506e+003,2.120824e+000
1.745291e+003,2.164730e+000
1.751077e+003,2.145453e+000
1.756862e+003,2.282493e+000
1.762648e+003,2.291026e+000
1.768433e+003,2.310809e+000
1.774219e+003,2.204976e+000
1.780004e+003,2.282346e+000
1.785790e+003,2.253900e+000
1.791575e+003,2.265321e+000
1.797361e+003,2.221524e+000
1.803146e+003,2.196502e+000
1.808932e+003,2.225585e+000
1.814717e+003,2.203686e+000
1.820503e+003,2.207404e+000
1.826288e+003,2.217326e+000
1.832074e+003,2.295807e+000
1.837859e+003,2.312527e+000
1.843645e+003,2.211721e+000
1.849430e+003,2.239390e+000
1.855216e+003,2.250234e+000
1.861001e+003,2.280893e+000
1.866786e+003,2.207050e+000
1.872572e+003,2.275149e+000
1.878358e+003,2.229146e+000
1.884143e+003,2.205990e+000
1.889929e+003,2.173441e+000
1.895714e+003,2.179122e+000
1.901500e+003,2.278742e+000
1.907285e+003,2.264494e+000
1.913071e+003,2.236230e+000
1.918856e+003,2.248007e+000
1.924641e+003,2.200268e+000
1.930427e+003,2.193619e+000
1.936213e+003,2.166787e+000
1.941998e+003,2.255360e+000
1.947783e+003,2.215680e+000
1.953569e+003,2.236758e+000
1.959354e+003,2.258041e+000
1.965140e+003,2.232863e+000
1.970925e+003,2.234960e+000
1.976711e+003,2.247052e+000
1.982496e+003,2.215403e+000
1.988282e+003,2.192070e+000
1.994068e+003,2.244024e+000
1.999853e+003,2.288321e+000
2.005638e+003,2.243246e+000
2.011424e+003,2.261942e+000
2.017209e+003,2.208508e+000
2.022995e+003,2.267096e+000
2.028780e+003,2.222589e+000
2.034566e+003,2.213115e+000
2.040351e+003,2.285989e+000
2.046137e+003,2.226251e+000
2.051922e+003,2.157823e+000
2.057708e+003,2.051484e+000
2.063493e+003,1.856119e+000
2.069279e+003,1.711599e+000
2.075064e+003,1.633146e+000
2.080850e+003,1.527768e+000
2.086635e+003,1.460386e+000
2.092421e+003,1.389622e+000
2.098206e+003,1.352784e+000
2.103992e+003,1.323113e+000
2.109777e+003,1.273442e+000
2.115563e+003,1.238721e+000
2.121348e+003,1.228607e+000
2.127134e+003,1.185063e+000
2.132919e+003,1.179510e+000
2.138705e+003,1.148680e+000
2.144490e+003,1.135313e+000
2.150276e+003,1.110889e+000
2.156061e+003,1.093553e+000
2.161847e+003,1.082828e+000
2.167632e+003,1.056950e+000
2.173418e+003,1.035152e+000
2.179203e+003,1.020032e+000
2.184989e+003,1.004298e+000
2.190774e+003,9.847478e-001
2.196560e+003,9.688414e-001
2.202345e+003,9.551776e-001
2.208131e+003,9.391425e-001
2.213916e+003,9.207917e-001
2.219702e+003,9.026666e-001
2.225487e+003,8.885309e-001
2.231273e+003,8.734933e-001
2.237058e+003,8.636753e-001
2.242844e+003,8.478480e-001
2.248629e+003,8.337412e-001
2.254415e+003,8.220743e-001
2.260200e+003,8.162317e-001
2.265986e+003,7.960967e-001
2.271771e+003,7.900721e-001
2.277557e+003,7.730384e-001
2.283342e+003,7.627912e-001
2.289128e+003,7.487518e-001
2.294913e+003,7.406952e-001
2.300699e+003,7.339954e-001
2.306484e+003,7.188517e-001
2.312270e+003,7.124475e-001
2.318055e+003,7.011337e-001
2.323841e+003,6.972722e-001
2.329626e+003,6.881771e-001
2.335412e+003,6.810429e-001
2.341197e+003,6.639705e-001
2.346983e+003,6.629121e-001
2.352768e+003,6.496573e-001
2.358554e+003,6.526541e-001
2.364339e+003,6.320593e-001
2.370125e+003,6.298169e-001
2.375910e+003,6.063406e-001
2.381696e+003,5.931755e-001
2.387481e+003,5.819443e-001
2.393267e+003,5.750334e-001
2.399052e+003,5.642846e-001
2.404838e+003,5.578736e-001
2.410623e+003,5.497798e-001
2.416409e+003,5.417671e-001
2.422194e+003,5.359499e-001
2.427980e+003,5.275777e-001
2.433765e+003,5.219051e-001
2.439551e+003,5.136564e-001
2.445336e+003,5.075395e-001
2.451122e+003,5.004388e-001
2.456907e+003,4.965764e-001
2.462693e+003,4.924658e-001
2.468478e+003,4.902410e-001
2.474264e+003,4.877213e-001
2.480049e+003,4.878992e-001
2.485834e+003,4.889989e-001
2.491620e+003,4.814164e-001
2.497406e+003,4.769635e-001
2.503191e+003,4.635631e-001
2.508977e+003,4.514735e-001
2.514762e+003,4.435162e-001
2.520548e+003,4.340330e-001
2.526333e+003,4.276132e-001
2.532119e+003,4.181891e-001
2.537904e+003,4.118508e-001
2.543689e+003,4.082353e-001
2.549475e+003,4.028442e-001
2.555260e+003,3.996121e-001
2.561046e+003,3.953679e-001
2.566832e+003,3.897788e-001
2.572617e+003,3.832792e-001
2.578403e+003,3.793268e-001
2.584188e+003,3.740578e-001
2.589973e+003,3.671125e-001
2.595759e+003,3.615435e-001
2.601544e+003,3.570733e-001
2.607330e+003,3.514041e-001
2.613115e+003,3.483895e-001
2.618901e+003,3.457182e-001
2.624687e+003,3.419917e-001
2.630472e+003,3.376298e-001
2.636258e+003,3.353356e-001
2.642043e+003,3.303813e-001
2.647828e+003,3.272934e-001
2.653614e+003,3.224901e-001
2.659399e+003,3.168764e-001
2.665185e+003,3.124966e-001
2.670970e+003,3.057575e-001
2.676756e+003,3.000240e-001
2.682542e+003,2.947398e-001
2.688327e+003,2.875685e-001
2.694112e+003,2.798102e-001
2.699898e+003,2.738579e-001
2.705683e+003,2.671163e-001
2.711469e+003,2.621538e-001
2.717254e+003,2.554644e-001
2.723040e+003,2.496035e-001
2.728825e+003,2.440760e-001
2.734611e+003,2.409402e-001
2.740396e+003,2.370521e-001
2.746182e+003,2.342383e-001
2.751967e+003,2.310216e-001
2.757753e+003,2.277319e-001
2.763538e+003,2.253274e-001
2.769324e+003,2.230310e-001
2.775109e+003,2.194365e-001
2.780895e+003,2.175087e-001
2.786680e+003,2.165668e-001
2.792466e+003,2.137937e-001
2.798251e+003,2.118070e-001
2.804037e+003,2.102102e-001
2.809822e+003,2.075087e-001
2.815608e+003,2.044555e-001
2.821393e+003,2.036128e-001
2.827179e+003,2.025300e-001
2.832964e+003,1.988829e-001
2.838750e+003,1.961460e-001
2.844535e+003,1.971246e-001
2.850321e+003,1.959086e-001
2.856106e+003,1.914895e-001
2.861892e+003,1.883079e-001
2.867677e+003,1.844549e-001
2.873463e+003,1.808683e-001
2.879248e+003,1.775942e-001
2.885034e+003,1.733018e-001
2.890819e+003,1.720202e-001
2.896605e+003,1.691136e-001
2.902390e+003,1.674365e-001
2.908176e+003,1.647355e-001
2.913961e+003,1.644209e-001
2.919747e+003,1.645720e-001
2.925532e+003,1.607634e-001
2.931318e+003,1.573876e-001
2.937103e+003,1.541358e-001
2.942889e+003,1.510123e-001
2.948674e+003,1.490082e-001
2.954460e+003,1.491438e-001
2.960245e+003,1.463596e-001
2.966031e+003,1.449299e-001
2.971816e+003,1.416054e-001
2.977602e+003,1.391196e-001
2.983387e+003,1.358343e-001
2.989173e+003,1.318794e-001
2.994958e+003,1.258026e-001
3.000744e+003,1.226297e-001
3.006529e+003,1.168350e-001
3.012315e+003,1.122941e-001
3.018100e+003,1.054986e-001
3.023886e+003,1.026031e-001
3.029671e+003,9.683622e-002
3.035457e+003,9.359135e-002
3.041242e+003,9.069248e-002
3.047028e+003,8.691215e-002
3.052813e+003,8.418293e-002
3.058599e+003,8.039317e-002
3.064384e+003,7.926064e-002
3.070170e+003,7.507977e-002
3.075955e+003,7.365911e-002
3.081741e+003,7.178930e-002
3.087526e+003,6.911474e-002
3.093312e+003,6.872506e-002
3.099097e+003,6.731197e-002
3.104883e+003,6.466237e-002
3.110668e+003,6.370942e-002
3.116454e+003,6.172734e-002
3.122239e+003,6.070974e-002
3.128025e+003,5.978302e-002
3.133810e+003,5.782741e-002
3.139595e+003,5.691818e-002
3.145381e+003,5.531548e-002
3.151167e+003,5.555769e-002
3.156952e+003,5.307860e-002
3.162738e+003,5.274961e-002
3.168523e+003,5.050435e-002
3.174309e+003,4.963178e-002
3.180094e+003,5.013063e-002
3.185880e+003,4.807024e-002
3.191665e+003,4.793340e-002
3.197450e+003,4.623068e-002
3.203236e+003,4.604294e-002
3.209021e+003,4.552514e-002
3.214807e+003,4.424205e-002
3.220593e+003,4.402751e-002
3.226378e+003,4.289039e-002
3.232164e+003,4.183675e-002
3.237949e+003,4.131453e-002
3.243734e+003,3.945304e-002
3.249520e+003,3.885779e-002
3.255305e+003,3.781713e-002
3.261091e+003,3.707357e-002
3.266876e+003,3.640638e-002
3.272662e+003,3.468705e-002
3.278448e+003,3.538130e-002
3.284233e+003,3.530644e-002
3.290019e+003,3.333163e-002
3.295804e+003,3.285484e-002
3.301589e+003,3.157445e-002
3.307375e+003,3.075240e-002
3.313160e+003,2.996868e-002
3.318946e+003,2.922454e-002
3.324731e+003,2.880573e-002
3.330517e+003,2.908840e-002
3.336302e+003,2.955812e-002
3.342088e+003,2.764789e-002
3.347873e+003,2.819292e-002
3.353659e+003,2.505780e-002
3.359444e+003,2.598232e-002
3.365230e+003,2.627752e-002
3.371015e+003,2.410162e-002
3.376801e+003,2.452952e-002
3.382586e+003,2.328536e-002
3.388372e+003,2.330305e-002
3.394157e+003,2.223025e-002
3.399943e+003,2.383908e-002
3.405728e+003,2.232380e-002
3.411514e+003,2.192312e-002
3.417299e+003,2.063226e-002
3.423085e+003,2.129235e-002
3.428870e+003,2.117916e-002
3.434656e+003,2.078639e-002
3.440441e+003,1.941552e-002
3.446227e+003,1.964985e-002
3.452012e+003,2.020082e-002
3.457798e+003,1.982000e-002
3.463583e+003,2.123932e-002
3.469369e+003,2.005121e-002
3.475154e+003,1.968285e-002
3.480940e+003,2.054148e-002
3.486725e+003,2.021773e-002
3.492511e+003,1.931391e-002
3.498296e+003,2.110225e-002
3.504082e+003,1.811115e-002
3.509867e+003,1.793677e-002
3.515653e+003,2.050302e-002
3.521438e+003,2.330410e-002
3.527224e+003,2.303384e-002
3.533009e+003,2.128678e-002
3.538795e+003,1.803785e-002
3.544580e+003,1.829158e-002
3.550366e+003,1.430245e-002
3.556151e+003,1.813215e-002
3.561937e+003,2.698263e-002
3.567722e+003,3.289833e-002
3.573508e+003,3.556388e-002
3.579293e+003,1.860294e-002
3.585079e+003,1.049021e-002
3.590864e+003,1.335020e-002
3.596650e+003,2.373699e-002
3.602435e+003,1.408818e-002
3.608221e+003,5.103352e-003
3.614006e+003,5.046093e-003
3.619792e+003,4.695736e-003
3.625577e+003,1.786446e-003
3.631363e+003,3.491113e-003
3.637148e+003,1.472651e-003
3.642934e+003,1.339286e-003
3.648719e+003,-2.088676e-003
3.654505e+003,-3.233149e-003
3.660290e+003,-1.016125e-003
3.666076e+003,-2.887553e-003
3.671861e+003,1.565585e-003
3.677647e+003,2.254750e-003
3.683432e+003,-7.018741e-004
3.689218e+003,1.022095e-003
3.695003e+003,-2.921388e-003
3.700789e+003,-3.830023e-003
3.706574e+003,-2.609271e-003
3.712360e+003,-1.740023e-003
3.718145e+003,-3.315823e-003
3.723931e+003,-4.363879e-004
3.729716e+003,-2.344586e-003
3.735502e+003,-4.087109e-003
3.741287e+003,-4.309006e-003
3.747073e+003,-8.171776e-004
3.752858e+003,-4.981165e-004
3.758644e+003,-5.621397e-003
3.764429e+003,-6.841649e-003
3.770215e+003,-4.295948e-003
3.776000e+003,-5.122773e-003
3.781786e+003,-4.621346e-003
3.787571e+003,-4.508688e-003
3.793356e+003,-6.757948e-003
3.799142e+003,-7.852226e-003
3.804927e+003,-7.911705e-003
3.810713e+003,-7.848874e-003
3.816499e+003,-5.393461e-003
3.822284e+003,-3.466692e-003
3.828070e+003,-6.477010e-003
3.833855e+003,-6.090143e-003
3.839641e+003,-2.899205e-003
3.845426e+003,-5.560327e-003
3.851211e+003,-1.141054e-002
3.856997e+003,-5.117763e-003
3.862782e+003,-8.788540e-003
3.868568e+003,-9.156142e-003
3.874354e+003,-7.896446e-003
3.880139e+003,-1.003012e-002
3.885925e+003,-7.264540e-003
3.891710e+003,-8.976568e-003
3.897495e+003,-8.755387e-003
3.903281e+003,-6.830951e-003
3.909066e+003,-8.936839e-003
3.914852e+003,-9.575426e-003
3.920637e+003,-9.072594e-003
3.926423e+003,-9.005420e-003
3.932208e+003,-7.152207e-003
3.937994e+003,-9.941909e-003
3.943780e+003,-1.209568e-002
3.949565e+003,-9.579899e-003
3.955350e+003,-1.140069e-002
3.961136e+003,-1.040941e-002
3.966921e+003,-1.148376e-002
3.972707e+003,-1.130331e-002
3.978492e+003,-1.210463e-002
3.984278e+003,-1.187959e-002
3.990063e+003,-1.279415e-002
3.995849e+003,-1.214588e-002
4.001634e+003,-1.303370e-002
4.007420e+003,-1.195464e-002
4.013205e+003,-1.265186e-002
4.018991e+003,-1.206819e-002
4.024776e+003,-1.289210e-002
4.030562e+003,-1.286540e-002
4.036347e+003,-1.485218e-002
4.042133e+003,-1.325696e-002
4.047918e+003,-1.373757e-002
4.053704e+003,-1.434231e-002
4.059489e+003,-1.385081e-002
4.065275e+003,-1.467055e-002
4.071060e+003,-1.309116e-002
4.076846e+003,-1.474496e-002
4.082631e+003,-1.422047e-002
4.088417e+003,-1.560281e-002
4.094202e+003,-1.484977e-002
4.099988e+003,-1.490837e-002
4.105773e+003,-1.526766e-002
4.111559e+003,-1.364090e-002
4.117344e+003,-1.506627e-002
4.123130e+003,-1.642034e-002
4.128916e+003,-1.427139e-002
4.134701e+003,-1.384715e-002
4.140486e+003,-1.567419e-002
4.146272e+003,-1.594745e-002
4.152057e+003,-1.473394e-002
4.157843e+003,-1.657247e-002
4.163628e+003,-1.602553e-002
4.169414e+003,-1.572765e-002
4.175199e+003,-1.654306e-002
4.180985e+003,-1.600503e-002
4.186770e+003,-1.409235e-002
4.192556e+003,-1.729072e-002
4.198341e+003,-1.573379e-002
4.204127e+003,-1.613684e-002
4.209912e+003,-1.695741e-002
4.215698e+003,-1.527841e-002
4.221483e+003,-1.494685e-002
4.227269e+003,-1.702276e-002
4.233054e+003,-1.715503e-002
4.238840e+003,-1.615494e-002
4.244625e+003,-1.618852e-002
4.250411e+003,-1.642149e-002
4.256196e+003,-1.492898e-002
4.261982e+003,-1.596335e-002
4.267767e+003,-1.787321e-002
4.273553e+003,-1.572072e-002
4.279338e+003,-1.711795e-002
4.285124e+003,-1.676133e-002
4.290909e+003,-1.612132e-002
4.296695e+003,-1.597019e-002
4.302480e+003,-1.550700e-002
4.308266e+003,-1.447520e-002
4.314051e+003,-1.620464e-002
4.319836e+003,-1.711785e-002
4.325622e+003,-1.600567e-002
4.331408e+003,-1.635519e-002
4.337193e+003,-1.678151e-002
4.342979e+003,-1.670544e-002
4.348764e+003,-1.689884e-002
4.354550e+003,-1.681562e-002
4.360335e+003,-1.643649e-002
4.366121e+003,-1.661874e-002
4.371906e+003,-1.671243e-002
4.377691e+003,-1.666622e-002
4.383477e+003,-1.695993e-002
4.389263e+003,-1.786357e-002
4.395048e+003,-1.617968e-002
4.400833e+003,-1.604865e-002
4.406619e+003,-1.686604e-002
4.412405e+003,-1.658625e-002
4.418190e+003,-1.775042e-002
4.423976e+003,-1.663013e-002
4.429761e+003,-1.916883e-002
4.435546e+003,-1.584731e-002
4.441332e+003,-1.552149e-002
4.447118e+003,-1.830052e-002
4.452903e+003,-1.692373e-002
4.458688e+003,-1.671973e-002
4.464474e+003,-1.680038e-002
4.470260e+003,-1.797028e-002
4.476045e+003,-1.682933e-002
4.481831e+003,-1.756819e-002
4.487616e+003,-1.745142e-002
4.493401e+003,-1.859789e-002
4.499187e+003,-1.773963e-002
4.504973e+003,-1.587353e-002
4.510758e+003,-1.833378e-002
4.516543e+003,-1.537945e-002
4.522329e+003,-1.769049e-002
4.528114e+003,-1.723703e-002
4.533900e+003,-1.758197e-002
4.539686e+003,-1.650479e-002
4.545471e+003,-1.717098e-002
4.551256e+003,-1.719178e-002
4.557042e+003,-1.675336e-002
4.562828e+003,-1.786262e-002
4.568613e+003,-1.663727e-002
4.574398e+003,-1.567562e-002
4.580184e+003,-1.603722e-002
4.585969e+003,-1.893425e-002
4.591755e+003,-1.733584e-002
4.597541e+003,-1.659651e-002
4.603326e+003,-1.474800e-002
4.609111e+003,-1.609610e-002
4.614897e+003,-1.753672e-002
4.620683e+003,-1.561394e-002
4.626468e+003,-1.600059e-002
4.632253e+003,-1.413950e-002
4.638039e+003,-1.760265e-002
4.643824e+003,-1.799854e-002
4.649610e+003,-1.737360e-002
4.655396e+003,-1.716076e-002
4.661181e+003,-1.610383e-002
4.666966e+003,-1.689192e-002
4.672752e+003,-1.567252e-002
4.678538e+003,-1.643010e-002
4.684323e+003,-1.616474e-002
4.690108e+003,-1.706176e-002
4.695894e+003,-1.705937e-002
4.701679e+003,-1.617853e-002
4.707465e+003,-1.613853e-002
4.713250e+003,-1.543970e-002
4.719036e+003,-1.800038e-002
4.724821e+003,-1.832298e-002
4.730607e+003,-1.742570e-002
4.736392e+003,-1.889019e-002
4.742178e+003,-1.745550e-002
4.747963e+003,-1.520627e-002
4.753749e+003,-1.611535e-002
4.759534e+003,-1.882081e-002
4.765320e+003,-1.413526e-002
4.771105e+003,-1.661042e-002
4.776891e+003,-1.808693e-002
4.782676e+003,-1.587756e-002
4.788462e+003,-1.644526e-002
4.794247e+003,-1.807165e-002
4.800033e+003,-1.647030e-002
4.805818e+003,-1.717802e-002
4.811604e+003,-1.810746e-002
4.817389e+003,-1.529290e-002
4.823175e+003,-1.839692e-002
4.828960e+003,-1.695069e-002
4.834746e+003,-1.659613e-002
4.840531e+003,-1.708578e-002
4.846317e+003,-1.654175e-002
4.852102e+003,-1.519817e-002
4.857888e+003,-1.703286e-002
4.863673e+003,-1.543135e-002
4.869458e+003,-1.699635e-002
4.875244e+003,-1.632682e-002
4.881030e+003,-1.495120e-002
4.886815e+003,-1.744655e-002
4.892601e+003,-1.864017e-002
4.898386e+003,-1.831085e-002
4.904172e+003,-1.549466e-002
4.909957e+003,-1.573874e-002
4.915743e+003,-1.742013e-002
4.921528e+003,-1.510823e-002
4.927313e+003,-1.901275e-002
4.933099e+003,-1.861716e-002
4.938885e+003,-1.873408e-002
4.944670e+003,-1.747545e-002
4.950456e+003,-1.737811e-002
4.956241e+003,-1.799650e-002
4.962027e+003,-1.645866e-002
4.967812e+003,-1.639820e-002
4.973598e+003,-1.727111e-002
4.979383e+003,-1.661472e-002
4.985168e+003,-1.549517e-002
4.990954e+003,-1.483229e-002
4.996740e+003,-1.675046e-002
5.002525e+003,-1.685827e-002
5.008311e+003,-1.551346e-002
5.014096e+003,-1.854290e-002
5.019882e+003,-1.652986e-002
5.025667e+003,-1.929102e-002
5.031453e+003,-1.646041e-002
5.037238e+003,-1.690257e-002
5.043023e+003,-1.650708e-002
5.048809e+003,-1.760179e-002
5.054595e+003,-1.776285e-002
5.060380e+003,-1.835389e-002
5.066166e+003,-1.628635e-002
5.071951e+003,-1.732364e-002
5.077736e+003,-1.638055e-002
5.083522e+003,-1.682633e-002
5.089308e+003,-1.762079e-002
5.095093e+003,-1.305290e-002
5.100878e+003,-1.739687e-002
5.106664e+003,-1.711900e-002
5.112450e+003,-1.806132e-002
5.118235e+003,-1.494794e-002
5.124021e+003,-1.552555e-002
5.129806e+003,-1.612132e-002
5.135591e+003,-1.774660e-002
5.141377e+003,-1.681868e-002
5.147163e+003,-1.755521e-002
5.152948e+003,-1.744407e-002
5.158733e+003,-1.152697e-002
5.164519e+003,-1.816708e-002
5.170305e+003,-1.656542e-002
5.176090e+003,-1.376880e-002
5.181875e+003,-1.594336e-002
5.187661e+003,-1.318319e-002
5.193446e+003,-1.938160e-002
5.199232e+003,-1.619995e-002
5.205018e+003,-1.570148e-002
5.210803e+003,-1.263068e-002
5.216588e+003,-1.760551e-002
5.222374e+003,-1.795492e-002
5.228160e+003,-1.177009e-002
5.233945e+003,-1.515879e-002
5.239730e+003,-1.465351e-002
5.245516e+003,-1.458463e-002
5.251301e+003,-1.261565e-002
5.257087e+003,-1.420229e-002
5.262873e+003,-1.516746e-002
5.268658e+003,-1.471825e-002
5.274443e+003,-1.673758e-002
5.280229e+003,-1.473311e-002
5.286014e+003,-1.671316e-002
5.291800e+003,-1.507479e-002
5.297585e+003,-1.301930e-002
5.303371e+003,-1.375227e-002
5.309156e+003,-1.576631e-002
5.314942e+003,-1.562180e-002
5.320728e+003,-1.552094e-002
5.326513e+003,-1.343034e-002
5.332298e+003,-1.965653e-002
5.338084e+003,-9.082686e-003
5.343869e+003,-1.430076e-002
5.349655e+003,-1.181595e-002
5.355440e+003,-1.115711e-002
5.361226e+003,-1.355329e-002
5.367011e+003,-1.223921e-002
5.372797e+003,-1.384430e-002
5.378583e+003,-1.404057e-002
5.384368e+003,-1.161760e-002
5.390153e+003,-1.331898e-002
5.395939e+003,-8.802015e-003
5.401724e+003,-1.497675e-002
5.407510e+003,-1.536032e-002
5.413295e+003,-9.109195e-003
5.419081e+003,-1.526734e-002
5.424866e+003,-1.431538e-002
5.430652e+003,-1.311453e-002
5.436438e+003,-8.980884e-003
5.442223e+003,-1.672776e-002
5.448008e+003,-1.117852e-002
5.453794e+003,-1.346140e-002
5.459579e+003,-1.427299e-002
5.465365e+003,-9.978826e-003
5.471150e+003,-1.283919e-002
5.476936e+003,-8.326535e-003
5.482721e+003,-1.090589e-002
5.488507e+003,-1.280908e-002
5.494292e+003,-1.001681e-002
5.500078e+003,-1.013527e-002
5.505863e+003,-1.306434e-002
5.511649e+003,-1.848156e-002
5.517434e+003,-9.288684e-003
5.523220e+003,-9.692383e-003
5.529005e+003,-1.129450e-002
5.534791e+003,-1.474374e-002
5.540576e+003,-1.069577e-002
5.546362e+003,-1.395148e-002
5.552147e+003,-9.519512e-003
5.557933e+003,-1.429153e-002
5.563718e+003,-1.254139e-002
5.569504e+003,-1.119511e-002
5.575289e+003,-8.094226e-003
5.581075e+003,-1.098634e-002
5.586860e+003,-1.210351e-002
5.592646e+003,-6.619705e-003
5.598431e+003,-7.709448e-003
5.604217e+003,-9.855986e-003
5.610002e+003,-1.585402e-002
5.615788e+003,-1.010315e-002
5.621573e+003,-1.062241e-002
5.627358e+003,-8.806301e-003
5.633144e+003,-7.342312e-003
5.638930e+003,-8.834126e-003
5.644715e+003,-6.759482e-003
5.650500e+003,-5.894945e-003
5.656286e+003,-4.246111e-003
5.662072e+003,-5.258776e-003
5.667857e+003,-3.707632e-003
5.673643e+003,-6.452527e-003
5.679428e+003,-5.861832e-003
5.685213e+003,-7.376225e-003
5.690999e+003,-3.238083e-003
5.696785e+003,-5.426839e-003
5.702570e+003,-2.872017e-003
5.708355e+003,-7.330062e-003
5.714141e+003,-5.276355e-003
5.719927e+003,-8.770421e-003
5.725712e+003,-5.032419e-003
5.731498e+003,-2.240401e-003
5.737283e+003,-3.892848e-003
5.743068e+003,-2.979638e-003
5.748854e+003,-2.332821e-003
5.754640e+003,1.405930e-003
5.760425e+003,-1.062147e-004
5.766210e+003,1.570906e-003
5.771996e+003,-4.375599e-003
5.777782e+003,-1.583850e-004
5.783567e+003,-9.012048e-004
5.789353e+003,2.426545e-003
5.795138e+003,-6.080476e-004
5.800923e+003,3.233431e-003
5.806709e+003,8.451102e-004
5.812495e+003,6.385399e-005
5.818280e+003,4.675975e-003
5.824065e+003,5.576187e-003
5.829851e+003,8.079958e-004
5.835637e+003,3.732038e-003
5.841422e+003,5.897362e-003
5.847208e+003,6.673210e-003
5.852993e+003,5.613375e-003
5.858778e+003,5.479572e-003
5.864564e+003,3.708377e-003
5.870350e+003,8.144361e-003
5.876135e+003,8.335795e-003
5.881920e+003,1.143644e-002
5.887706e+003,1.077580e-002
5.893491e+003,8.142065e-003
5.899277e+003,8.708810e-003
5.905063e+003,1.003447e-002
5.910848e+003,1.022562e-002
5.916633e+003,1.528597e-002
5.922419e+003,1.335098e-002
5.928205e+003,1.485453e-002
5.933990e+003,1.695574e-002
5.939775e+003,2.108555e-002
5.945561e+003,1.695078e-002
5.951346e+003,2.151999e-002
5.957132e+003,1.728083e-002
5.962917e+003,2.187932e-002
5.968703e+003,1.812535e-002
5.974488e+003,2.212575e-002
5.980274e+003,2.039914e-002
5.986060e+003,2.181235e-002
5.991845e+003,2.509097e-002
5.997630e+003,1.953879e-002
6.003416e+003,2.695104e-002
6.009201e+003,3.200076e-002
6.014987e+003,2.322352e-002
6.020772e+003,3.071317e-002
6.026558e+003,2.968505e-002
6.032343e+003,2.739739e-002
6.038129e+003,2.800116e-002
6.043915e+003,3.498248e-002
6.049700e+003,3.204780e-002
6.055485e+003,3.539561e-002
6.061271e+003,3.178299e-002
6.067056e+003,3.877931e-002
6.072842e+003,4.112471e-002
6.078627e+003,3.719604e-002
6.084413e+003,4.816056e-002
6.090198e+003,4.974100e-002
6.095984e+003,4.249137e-002
6.101769e+003,4.587638e-002
6.107555e+003,3.947608e-002
6.113340e+003,4.741204e-002
6.119126e+003,4.760747e-002
6.124911e+003,5.059328e-002
6.130697e+003,5.626198e-002
6.136482e+003,5.691172e-002
6.142268e+003,5.662342e-002
6.148053e+003,6.051156e-002
6.153839e+003,6.436588e-002
6.159624e+003,6.054264e-002
6.165410e+003,6.784412e-002
6.171195e+003,6.285015e-002
6.176981e+003,5.899356e-002
6.182766e+003,6.869832e-002
6.188552e+003,6.800645e-002
6.194337e+003,7.734206e-002
6.200123e+003,7.588235e-002
6.205908e+003,7.244968e-002
6.211694e+003,7.898303e-002
6.217479e+003,8.116505e-002
6.223265e+003,8.024558e-002
6.229050e+003,8.601498e-002
6.234835e+003,8.456416e-002
6.240621e+003,8.809830e-002
6.246407e+003,9.179348e-002
6.252192e+003,9.355304e-002
6.257978e+003,8.838774e-002
6.263763e+003,9.081454e-002
6.269549e+003,1.008895e-001
6.275334e+003,1.023467e-001
6.281120e+003,1.061551e-001
6.286905e+003,1.067114e-001
6.292690e+003,1.148424e-001
6.298476e+003,1.093775e-001
6.304262e+003,1.177343e-001
6.310047e+003,1.183018e-001
6.315833e+003,1.275694e-001
6.321618e+003,1.288439e-001
6.327404e+003,1.301637e-001
6.333189e+003,1.332837e-001
6.338975e+003,1.319735e-001
6.344760e+003,1.318398e-001
6.350545e+003,1.339883e-001
6.356331e+003,1.393238e-001
6.362117e+003,1.354249e-001
6.367902e+003,1.411065e-001
6.373688e+003,1.473134e-001
6.379473e+003,1.507055e-001
6.385259e+003,1.514684e-001
6.391044e+003,1.579557e-001
6.396830e+003,1.588558e-001
6.402615e+003,1.746471e-001
6.408400e+003,1.714279e-001
6.414186e+003,1.661336e-001
6.419972e+003,1.809954e-001
6.425757e+003,1.746465e-001
6.431542e+003,1.852470e-001
6.437328e+003,1.830248e-001
6.443113e+003,1.901817e-001
6.448899e+003,2.068965e-001
6.454685e+003,2.005583e-001
6.460470e+003,1.961352e-001
6.466255e+003,2.077153e-001
6.472041e+003,2.037824e-001
6.477827e+003,2.232337e-001
6.483612e+003,2.085711e-001
6.489397e+003,2.102808e-001
6.495183e+003,2.285395e-001
6.500968e+003,2.282509e-001
6.506754e+003,2.279708e-001
6.512540e+003,2.338501e-001
6.518325e+003,2.206034e-001
6.524110e+003,2.437199e-001
6.529896e+003,2.546403e-001
6.535682e+003,2.638914e-001
6.541467e+003,2.606926e-001
6.547252e+003,2.635056e-001
6.553038e+003,2.644339e-001
6.558823e+003,2.697056e-001
6.564609e+003,2.815519e-001
6.570395e+003,3.039676e-001
6.576180e+003,2.722276e-001
6.581965e+003,2.690254e-001
6.587751e+003,3.017311e-001
6.593537e+003,2.953896e-001
6.599322e+003,3.002290e-001
6.605107e+003,2.928706e-001
6.610893e+003,3.209605e-001
6.616678e+003,3.325788e-001
6.622464e+003,3.247386e-001
6.628250e+003,3.256083e-001
6.634035e+003,3.428552e-001
6.639820e+003,3.482929e-001
6.645606e+003,3.431926e-001
6.651391e+003,3.388468e-001
6.657177e+003,3.672804e-001
6.662962e+003,3.575098e-001
6.668748e+003,3.768218e-001
6.674533e+003,3.891570e-001
6.680319e+003,3.849262e-001
6.686104e+003,3.869052e-001
6.691890e+003,4.000246e-001
6.697675e+003,4.112942e-001
6.703461e+003,4.062395e-001
6.709246e+003,4.034136e-001
6.715032e+003,4.286496e-001
6.720817e+003,4.406396e-001
6.726603e+003,4.267094e-001
6.732388e+003,4.604438e-001
6.738174e+003,4.628211e-001
6.743959e+003,4.643577e-001
6.749745e+003,4.449661e-001
6.755530e+003,4.617950e-001
6.761316e+003,4.649132e-001
6.767101e+003,4.829647e-001
6.772887e+003,4.789025e-001
6.778672e+003,5.081170e-001
6.784458e+003,5.205801e-001
6.790243e+003,5.128070e-001
6.796029e+003,5.240039e-001
6.801814e+003,5.076206e-001
6.807600e+003,5.870508e-001
6.813385e+003,5.300924e-001
6.819171e+003,5.325714e-001
6.824956e+003,5.642127e-001
6.830742e+003,5.679548e-001
6.836527e+003,5.548729e-001
6.842313e+003,5.416052e-001
6.848098e+003,5.817393e-001
6.853884e+003,6.178380e-001
6.859669e+003,5.784979e-001
6.865455e+003,6.071885e-001
6.871240e+003,6.084829e-001
6.877026e+003,6.289095e-001
6.882811e+003,6.121646e-001
6.888597e+003,6.601202e-001
6.894382e+003,6.713589e-001
6.900167e+003,6.244204e-001
6.905953e+003,6.704226e-001
6.911739e+003,6.468979e-001
6.917524e+003,6.438127e-001
6.923310e+003,6.931722e-001
6.929095e+003,7.029305e-001
6.934881e+003,6.834479e-001
6.940666e+003,6.756652e-001
6.946452e+003,7.097864e-001
6.952237e+003,7.293867e-001
6.958022e+003,7.135108e-001
6.963808e+003,7.467086e-001
6.969594e+003,7.135596e-001
6.975379e+003,7.105052e-001
6.981165e+003,7.287422e-001
6.986950e+003,8.027754e-001
6.992735e+003,7.835891e-001
6.998521e+003,8.225158e-001
7.004307e+003,7.578943e-001
7.010092e+003,7.256660e-001
7.015877e+003,8.040771e-001
7.021663e+003,7.747173e-001
7.027449e+003,8.198569e-001
7.033234e+003,9.193555e-001
7.039020e+003,8.172240e-001
7.044805e+003,8.469306e-001
7.050590e+003,8.820485e-001
7.056376e+003,8.735470e-001
7.062162e+003,9.418606e-001
7.067947e+003,9.337238e-001
7.073732e+003,9.233554e-001
7.079518e+003,8.440615e-001
7.085304e+003,9.600391e-001
7.091089e+003,8.323671e-001
7.096875e+003,8.345409e-001
7.102660e+003,8.770885e-001
7.108445e+003,8.798329e-001
7.114231e+003,8.952479e-001
7.120017e+003,9.974270e-001
7.125802e+003,9.884255e-001
7.131587e+003,9.621007e-001
7.137373e+003,1.018479e+000
7.143159e+003,9.956544e-001
7.148944e+003,9.170996e-001
7.154729e+003,1.086267e+000
7.160515e+003,1.089673e+000
7.166300e+003,9.158992e-001
7.172086e+003,1.018741e+000
7.177872e+003,1.294180e+000
7.183657e+003,1.204383e+000
7.189442e+003,1.143678e+000
7.195228e+003,1.046935e+000
7.201013e+003,1.191824e+000
7.206799e+003,9.655197e-001
7.212584e+003,1.046814e+000
7.218370e+003,9.789704e-001
7.224155e+003,1.029396e+000
7.229941e+003,1.195847e+000
7.235727e+003,1.033115e+000
7.241512e+003,1.040261e+000
7.247297e+003,1.381510e+000
7.253083e+003,1.140898e+000
7.258868e+003,1.134347e+000
7.264654e+003,1.082475e+000
7.270439e+003,1.116746e+000
7.276225e+003,1.214850e+000
7.282010e+003,1.028951e+000
7.287796e+003,1.110598e+000
7.293582e+003,1.038163e+000
7.299367e+003,1.699550e+000
7.305152e+003,1.167109e+000
7.310938e+003,1.213850e+000
7.316723e+003,1.109997e+000
7.322509e+003,1.412107e+000
7.328294e+003,9.898101e-001
7.334080e+003,1.287785e+000
7.339865e+003,1.191302e+000
7.345651e+003,1.130265e+000
7.351437e+003,1.557560e+000
7.357222e+003,1.423347e+000
7.363007e+003,1.234039e+000
7.368793e+003,1.632061e+000
7.374578e+003,1.223084e+000
7.380364e+003,1.281648e+000
7.386149e+003,1.272014e+000
7.391935e+003,1.268837e+000
7.397720e+003,1.249313e+000
7.403506e+003,1.628278e+000
7.409291e+003,1.344398e+000
7.415077e+003,1.557093e+000
7.420862e+003,1.560228e+000
7.426648e+003,1.706386e+000
7.432433e+003,1.012519e+000
7.438219e+003,1.523415e+000
7.444004e+003,1.581568e+000
7.449790e+003,1.241279e+000
7.455575e+003,2.047364e+000
7.461361e+003,1.766611e+000
7.467146e+003,1.586588e+000
7.472932e+003,1.316602e+000
7.478717e+003,1.858863e+000
7.484503e+003,1.604277e+000
7.490288e+003,1.721572e+000
7.496074e+003,1.071354e+000
7.501859e+003,2.203513e+000
7.507645e+003,1.159680e+000
7.513430e+003,1.709714e+000
7.519216e+003,1.228741e+000
7.525001e+003,1.555396e+000
7.530787e+003,1.214276e+000
7.536572e+003,1.272289e+000
7.542357e+003,1.450631e+000
7.548143e+003,1.416672e+000
7.553929e+003,1.173390e+000
7.559714e+003,1.213825e+000
7.565500e+003,1.393706e+000
7.571285e+003,1.361572e+000
7.577071e+003,1.641317e+000
7.582856e+003,1.328435e+000
7.588642e+003,1.718974e+000
7.594427e+003,1.222534e+000
7.600212e+003,1.864960e+000
7.605998e+003,2.851500e+000
7.611784e+003,1.087609e+000
7.617569e+003,1.404553e+000
7.623354e+003,2.693219e+000
7.629140e+003,1.718270e+000
7.634926e+003,1.591308e+000
7.640711e+003,1.316578e+000
7.646497e+003,8.965078e-001
7.652282e+003,6.000000e+000
7.658067e+003,1.307853e+000
7.663853e+003,1.375971e+000
7.669639e+003,1.221310e+000
7.675424e+003,1.380778e+000
7.681209e+003,1.363551e+000
7.686995e+003,6.000000e+000
7.692781e+003,1.467052e+000
7.698566e+003,9.491988e-001
7.704352e+003,1.048561e+000
7.710137e+003,1.627290e+000
7.715922e+003,8.719662e-001
7.721708e+003,1.630091e+000
7.727494e+003,1.064025e+000
7.733279e+003,1.304163e+000
7.739064e+003,1.336203e+000
7.744850e+003,1.653179e+000
7.750635e+003,2.026608e+000
7.756421e+003,1.372242e+000
7.762207e+003,1.188177e+000
7.767992e+003,6.000000e+000
7.773777e+003,1.130400e+000
7.779563e+003,2.705011e+000
7.785349e+003,1.593572e+000
7.791134e+003,6.000000e+000
7.796919e+003,1.134362e+000
7.802705e+003,1.036314e+000
7.808490e+003,1.109587e+000
7.814276e+003,6.000000e+000
7.820062e+003,1.361044e+000
7.825847e+003,1.443344e+000
7.831632e+003,9.267763e-001
7.837418e+003,1.289463e+000
7.843204e+003,9.954094e-001
7.848989e+003,6.000000e+000
7.854774e+003,1.089661e+000
7.860560e+003,2.109707e+000
7.866345e+003,6.000000e+000
7.872131e+003,1.300808e+000
7.877917e+003,1.264176e+000
7.883702e+003,1.320401e+000
7.889487e+003,1.936192e+000
7.895273e+003,6.000000e+000
7.901059e+003,1.529136e+000
7.906844e+003,1.143635e+000
7.912629e+003,1.078532e+000
7.918415e+003,1.598045e+000
7.924200e+003,1.464450e+000
7.929986e+003,6.000000e+000
7.935771e+003,1.039310e+000
7.941557e+003,1.450830e+000
7.947342e+003,1.589937e+000
7.953128e+003,8.734365e-001
7.958914e+003,1.171916e+000
7.964699e+003,2.527771e+000
7.970484e+003,1.206294e+000
7.976270e+003,1.509334e+000
7.982055e+003,8.138857e-001
7.987841e+003,1.182599e+000
7.993626e+003,6.000000e+000
7.999412e+003,1.137627e+000
8.005197e+003,2.261741e+000
8.010983e+003,9.370481e-001
8.016768e+003,6.000000e+000
8.022554e+003,1.151950e+000
8.028339e+003,1.140351e+000
8.034125e+003,1.782827e+000
8.039910e+003,1.215026e+000
8.045696e+003,6.000000e+000
8.051481e+003,1.258433e+000
8.057267e+003,6.000000e+000
8.063052e+003,9.786037e-001
8.068838e+003,6.000000e+000
8.074623e+003,8.527579e-001
8.080409e+003,1.162045e+000
8.086194e+003,1.400355e+000
8.091979e+003,1.062169e+000
8.097765e+003,1.133772e+000
8.103551e+003,1.463405e+000
8.109336e+003,1.586100e+000
8.115122e+003,6.000000e+000
8.120907e+003,6.000000e+000
8.126693e+003,1.326961e+000
8.132478e+003,6.000000e+000
8.138264e+003,9.895841e-001
8.144049e+003,6.000000e+000
8.149834e+003,6.000000e+000
8.155620e+003,1.173469e+000
8.161406e+003,1.709488e+000
8.167191e+003,1.866795e+000
8.172977e+003,1.176071e+000
8.178762e+003,1.169510e+000
8.184548e+003,5.981673e-001
8.190333e+003,6.000000e+000
8.196118e+003,1.376704e+000
8.201904e+003,6.000000e+000
8.207689e+003,6.000000e+000
8.213476e+003,6.000000e+000
8.219261e+003,2.940914e+000
8.225046e+003,1.415735e+000
8.230832e+003,8.084822e-001
8.236617e+003,7.628416e-001
8.242402e+003,6.500552e-001
8.248188e+003,6.000000e+000
8.253974e+003,9.136802e-001
8.259759e+003,9.584608e-001
8.265545e+003,8.159125e-001
8.271330e+003,6.000000e+000
8.277115e+003,1.691636e+000
8.282901e+003,6.000000e+000
8.288687e+003,1.124315e+000
8.294472e+003,7.541147e-001
8.300258e+003,1.142504e+000
8.306043e+003,9.315218e-001
8.311828e+003,1.116012e+000
8.317614e+003,1.366235e+000
8.323399e+003,9.323810e-001
8.329185e+003,7.195028e-001
8.334971e+003,2.820000e+000
8.340756e+003,6.000000e+000
8.346542e+003,6.000000e+000
8.352327e+003,9.422172e-001
8.358112e+003,1.301813e+000
8.363898e+003,5.087723e-001
8.369684e+003,1.288566e+000
8.375469e+003,1.058236e+000
8.381255e+003,6.000000e+000
8.387040e+003,4.098489e-001
8.392825e+003,6.000000e+000
8.398611e+003,8.183954e-001
8.404396e+003,6.000000e+000
8.410182e+003,6.000000e+000
8.415968e+003,8.374350e-001
8.421753e+003,1.319012e+000
8.427538e+003,1.066719e+000
8.433324e+003,6.000000e+000
8.439109e+003,6.000000e+000
8.444895e+003,6.000000e+000
8.450681e+003,1.218967e+000
8.456466e+003,6.613109e-001
8.462251e+003,3.978621e-001
8.468037e+003,6.000000e+000
8.473822e+003,4.792303e-001
8.479608e+003,5.495840e-001
8.485394e+003,7.319155e-001
8.491179e+003,4.377310e-001
8.496965e+003,1.022652e+000
8.500821e+003,6.000000e+000