File: olivine/FTIR/SC1-2-800C-7hr-background-copper.CSV
4.493401e+002,1.245602e-002
4.551256e+002,1.116054e-002
4.609111e+002,1.131536e-002
4.666966e+002,1.127008e-002
4.724821e+002,1.488579e-002
4.782676e+002,1.008853e-002
4.840531e+002,1.110291e-002
4.898386e+002,1.224132e-002
4.956241e+002,2.062009e-002
5.014096e+002,1.600610e-002
5.071951e+002,1.600261e-002
5.129806e+002,2.094398e-002
5.187661e+002,2.677401e-002
5.245516e+002,2.586077e-002
5.303371e+002,2.950650e-002
5.361226e+002,3.448006e-002
5.419081e+002,3.881958e-002
5.476935e+002,4.548653e-002
5.534791e+002,6.234387e-002
5.592646e+002,7.895581e-002
5.650500e+002,9.899935e-002
5.708356e+002,1.350573e-001
5.766210e+002,1.783630e-001
5.824066e+002,2.574910e-001
5.881920e+002,3.463919e-001
5.939775e+002,4.286303e-001
5.997631e+002,5.221064e-001
6.055485e+002,6.123035e-001
6.113340e+002,7.004036e-001
6.171195e+002,7.571493e-001
6.229050e+002,8.753583e-001
6.286905e+002,9.748508e-001
6.344760e+002,1.035726e+000
6.402615e+002,1.122075e+000
6.460470e+002,1.178126e+000
6.518325e+002,1.240122e+000
6.576180e+002,1.349389e+000
6.634035e+002,1.515362e+000
6.691890e+002,9.772083e-001
6.749745e+002,1.604439e+000
6.807599e+002,1.657560e+000
6.865455e+002,1.781297e+000
6.923309e+002,1.925888e+000
6.981165e+002,2.051955e+000
7.039020e+002,2.160697e+000
7.096874e+002,2.253878e+000
7.154730e+002,2.295324e+000
7.212584e+002,2.273746e+000
7.270439e+002,2.347381e+000
7.328294e+002,2.361831e+000
7.386149e+002,2.371267e+000
7.444004e+002,2.386616e+000
7.501859e+002,2.423978e+000
7.559714e+002,2.461689e+000
7.617569e+002,2.498595e+000
7.675424e+002,2.533817e+000
7.733279e+002,2.574126e+000
7.791134e+002,2.606628e+000
7.848989e+002,2.615868e+000
7.906844e+002,2.608387e+000
7.964699e+002,2.595532e+000
8.022554e+002,2.632335e+000
8.080409e+002,2.682732e+000
8.138264e+002,2.750430e+000
8.196119e+002,2.814183e+000
8.253973e+002,2.889097e+000
8.311829e+002,2.984223e+000
8.369683e+002,3.051199e+000
8.427538e+002,3.098881e+000
8.485394e+002,3.132918e+000
8.543248e+002,3.130228e+000
8.601104e+002,3.118582e+000
8.658958e+002,3.159093e+000
8.716813e+002,3.186216e+000
8.774668e+002,3.233514e+000
8.832523e+002,3.296839e+000
8.890378e+002,3.345119e+000
8.948233e+002,3.394263e+000
9.006088e+002,3.440421e+000
9.063943e+002,3.488107e+000
9.121798e+002,3.528077e+000
9.179653e+002,3.583280e+000
9.237508e+002,3.615224e+000
9.295363e+002,3.648463e+000
9.353218e+002,3.679042e+000
9.411072e+002,3.719537e+000
9.468928e+002,3.746293e+000
9.526783e+002,3.760005e+000
9.584637e+002,3.775008e+000
9.642493e+002,3.777950e+000
9.700347e+002,3.768150e+000
9.758203e+002,3.787560e+000
9.816057e+002,3.824235e+000
9.873912e+002,3.847499e+000
9.931768e+002,3.859250e+000
9.989622e+002,3.847994e+000
1.004748e+003,3.808952e+000
1.010533e+003,3.754557e+000
1.016319e+003,3.692225e+000
1.022104e+003,3.645394e+000
1.027890e+003,3.642741e+000
1.033675e+003,3.665286e+000
1.039461e+003,3.678802e+000
1.045246e+003,3.687395e+000
1.051032e+003,3.707338e+000
1.056817e+003,3.747615e+000
1.062603e+003,3.812161e+000
1.068388e+003,3.862106e+000
1.074174e+003,3.912258e+000
1.079959e+003,3.964264e+000
1.085745e+003,4.031354e+000
1.091530e+003,4.074824e+000
1.097316e+003,4.094171e+000
1.103101e+003,4.160146e+000
1.108887e+003,4.245391e+000
1.114672e+003,4.340337e+000
1.120458e+003,4.437190e+000
1.126243e+003,4.512242e+000
1.132029e+003,4.552518e+000
1.137814e+003,4.604389e+000
1.143600e+003,4.616734e+000
1.149385e+003,4.647469e+000
1.155171e+003,4.713481e+000
1.160956e+003,4.788939e+000
1.166742e+003,4.864479e+000
1.172527e+003,4.910259e+000
1.178313e+003,4.889811e+000
1.184098e+003,4.936642e+000
1.189884e+003,4.971372e+000
1.195669e+003,5.002730e+000
1.201455e+003,5.060632e+000
1.207240e+003,5.106335e+000
1.213026e+003,5.130428e+000
1.218811e+003,5.189441e+000
1.224597e+003,5.215501e+000
1.230382e+003,5.243612e+000
1.236167e+003,5.221464e+000
1.241953e+003,5.219355e+000
1.247739e+003,5.218499e+000
1.253524e+003,5.110010e+000
1.259310e+003,4.871249e+000
1.265095e+003,4.986165e+000
1.270880e+003,5.066617e+000
1.276666e+003,5.222122e+000
1.282452e+003,5.264646e+000
1.288237e+003,5.230262e+000
1.294022e+003,5.371583e+000
1.299808e+003,5.436756e+000
1.305594e+003,5.436868e+000
1.311379e+003,5.336450e+000
1.317164e+003,5.199359e+000
1.322950e+003,5.445755e+000
1.328735e+003,5.464694e+000
1.334521e+003,5.415928e+000
1.340307e+003,4.660438e+000
1.346092e+003,5.490991e+000
1.351877e+003,5.435495e+000
1.357663e+003,5.360748e+000
1.363448e+003,4.467149e+000
1.369234e+003,5.085000e+000
1.375019e+003,4.414824e+000
1.380805e+003,5.197419e+000
1.386590e+003,4.426762e+000
1.392376e+003,4.934515e+000
1.398161e+003,4.225935e+000
1.403947e+003,4.848804e+000
1.409732e+003,5.233221e+000
1.415518e+003,4.839957e+000
1.421303e+003,4.323084e+000
1.427089e+003,5.031951e+000
1.432874e+003,4.794355e+000
1.438660e+003,4.379491e+000
1.444445e+003,5.086615e+000
1.450231e+003,4.733512e+000
1.456016e+003,2.603269e+000
1.461802e+003,4.859227e+000
1.467587e+003,4.940238e+000
1.473373e+003,2.932367e+000
1.479158e+003,5.081047e+000
1.484944e+003,5.005233e+000
1.490729e+003,3.507740e+000
1.496515e+003,3.458760e+000
1.502300e+003,4.575903e+000
1.508086e+003,1.872647e+000
1.513871e+003,4.046394e+000
1.519657e+003,2.925023e+000
1.525442e+003,3.409528e+000
1.531228e+003,4.362040e+000
1.537013e+003,3.929529e+000
1.542799e+003,2.530481e+000
1.548584e+003,4.607774e+000
1.554370e+003,3.704669e+000
1.560155e+003,1.959815e+000
1.565941e+003,4.729565e+000
1.571726e+003,4.671771e+000
1.577512e+003,3.767930e+000
1.583297e+003,5.429761e+000
1.589083e+003,5.311482e+000
1.594868e+003,5.102198e+000
1.600654e+003,5.231230e+000
1.606439e+003,5.086421e+000
1.612225e+003,5.160644e+000
1.618010e+003,3.753743e+000
1.623796e+003,3.845632e+000
1.629581e+003,4.852442e+000
1.635367e+003,2.732764e+000
1.641152e+003,5.106101e+000
1.646938e+003,2.673176e+000
1.652723e+003,1.757074e+000
1.658509e+003,5.321560e+000
1.664294e+003,4.734585e+000
1.670080e+003,3.378299e+000
1.675865e+003,3.867647e+000
1.681651e+003,3.872480e+000
1.687436e+003,4.312754e+000
1.693222e+003,4.829158e+000
1.699007e+003,2.649420e+000
1.704793e+003,3.809133e+000
1.710578e+003,5.077404e+000
1.716364e+003,2.813551e+000
1.722149e+003,5.198755e+000
1.727935e+003,5.248541e+000
1.733720e+003,2.827935e+000
1.739506e+003,4.244543e+000
1.745291e+003,4.700587e+000
1.751077e+003,3.868022e+000
1.756862e+003,4.893846e+000
1.762648e+003,4.762421e+000
1.768433e+003,4.701846e+000
1.774219e+003,4.374325e+000
1.780004e+003,5.114386e+000
1.785790e+003,5.388340e+000
1.791575e+003,4.082508e+000
1.797361e+003,5.241376e+000
1.803146e+003,5.316133e+000
1.808932e+003,5.364347e+000
1.814717e+003,5.821006e+000
1.820503e+003,5.783666e+000
1.826288e+003,4.997708e+000
1.832074e+003,5.257716e+000
1.837859e+003,5.576220e+000
1.843645e+003,4.300983e+000
1.849430e+003,5.557614e+000
1.855216e+003,5.794930e+000
1.861001e+003,5.688638e+000
1.866786e+003,4.867556e+000
1.872572e+003,5.633136e+000
1.878358e+003,5.724086e+000
1.884143e+003,5.651887e+000
1.889929e+003,5.089416e+000
1.895714e+003,5.432457e+000
1.901500e+003,5.688227e+000
1.907285e+003,5.498988e+000
1.913071e+003,5.658437e+000
1.918856e+003,5.043383e+000
1.924641e+003,5.386918e+000
1.930427e+003,5.653406e+000
1.936213e+003,5.647247e+000
1.941998e+003,5.046813e+000
1.947783e+003,5.560217e+000
1.953569e+003,5.586694e+000
1.959354e+003,5.589040e+000
1.965140e+003,5.444059e+000
1.970925e+003,5.577476e+000
1.976711e+003,5.575016e+000
1.982496e+003,5.563677e+000
1.988282e+003,5.430693e+000
1.994068e+003,5.374589e+000
1.999853e+003,5.514403e+000
2.005638e+003,5.519610e+000
2.011424e+003,5.510284e+000
2.017209e+003,5.279109e+000
2.022995e+003,5.471897e+000
2.028780e+003,5.472451e+000
2.034566e+003,5.471954e+000
2.040351e+003,5.381147e+000
2.046137e+003,5.427821e+000
2.051922e+003,5.428885e+000
2.057708e+003,5.411025e+000
2.063493e+003,5.337007e+000
2.069279e+003,5.390512e+000
2.075064e+003,5.371773e+000
2.080850e+003,5.366829e+000
2.086635e+003,5.348656e+000
2.092421e+003,5.334522e+000
2.098206e+003,5.329260e+000
2.103992e+003,5.317006e+000
2.109777e+003,5.307948e+000
2.115563e+003,5.281677e+000
2.121348e+003,5.285455e+000
2.127134e+003,5.275491e+000
2.132919e+003,5.260606e+000
2.138705e+003,5.241884e+000
2.144490e+003,5.236287e+000
2.150276e+003,5.229196e+000
2.156061e+003,5.218360e+000
2.161847e+003,5.200976e+000
2.167632e+003,5.192170e+000
2.173418e+003,5.182388e+000
2.179203e+003,5.165530e+000
2.184989e+003,5.154912e+000
2.190774e+003,5.141187e+000
2.196560e+003,5.127962e+000
2.202345e+003,5.116359e+000
2.208131e+003,5.106956e+000
2.213916e+003,5.098799e+000
2.219702e+003,5.085094e+000
2.225487e+003,5.074455e+000
2.231273e+003,5.057971e+000
2.237058e+003,5.039713e+000
2.242844e+003,5.022695e+000
2.248629e+003,4.991494e+000
2.254415e+003,4.954731e+000
2.260200e+003,4.906042e+000
2.265986e+003,4.869220e+000
2.271771e+003,4.841895e+000
2.277557e+003,4.854609e+000
2.283342e+003,4.880898e+000
2.289128e+003,4.711825e+000
2.294913e+003,4.492040e+000
2.300699e+003,4.211958e+000
2.306484e+003,3.785775e+000
2.312270e+003,3.230141e+000
2.318055e+003,2.722795e+000
2.323841e+003,2.180719e+000
2.329626e+003,1.861622e+000
2.335412e+003,1.755140e+000
2.341197e+003,1.653507e+000
2.346983e+003,2.274051e+000
2.352768e+003,1.770925e+000
2.358554e+003,1.148546e+000
2.364339e+003,1.197912e+000
2.370125e+003,1.716741e+000
2.375910e+003,2.730148e+000
2.381696e+003,4.041550e+000
2.387481e+003,4.693912e+000
2.393267e+003,4.750952e+000
2.399052e+003,4.743297e+000
2.404838e+003,4.730551e+000
2.410623e+003,4.713083e+000
2.416409e+003,4.705791e+000
2.422194e+003,4.693734e+000
2.427980e+003,4.681775e+000
2.433765e+003,4.671928e+000
2.439551e+003,4.663753e+000
2.445336e+003,4.648820e+000
2.451122e+003,4.633708e+000
2.456907e+003,4.626540e+000
2.462693e+003,4.613146e+000
2.468478e+003,4.601143e+000
2.474264e+003,4.591093e+000
2.480049e+003,4.574535e+000
2.485834e+003,4.572345e+000
2.491620e+003,4.544176e+000
2.497406e+003,4.544961e+000
2.503191e+003,4.532123e+000
2.508977e+003,4.515407e+000
2.514762e+003,4.499867e+000
2.520548e+003,4.494439e+000
2.526333e+003,4.484320e+000
2.532119e+003,4.467627e+000
2.537904e+003,4.456741e+000
2.543689e+003,4.445965e+000
2.549475e+003,4.429002e+000
2.555260e+003,4.422092e+000
2.561046e+003,4.404869e+000
2.566832e+003,4.392475e+000
2.572617e+003,4.381929e+000
2.578403e+003,4.365542e+000
2.584188e+003,4.361819e+000
2.589973e+003,4.346681e+000
2.595759e+003,4.332749e+000
2.601544e+003,4.323974e+000
2.607330e+003,4.311918e+000
2.613115e+003,4.300724e+000
2.618901e+003,4.285903e+000
2.624687e+003,4.275664e+000
2.630472e+003,4.262792e+000
2.636258e+003,4.250528e+000
2.642043e+003,4.238398e+000
2.647828e+003,4.220666e+000
2.653614e+003,4.210841e+000
2.659399e+003,4.198842e+000
2.665185e+003,4.189726e+000
2.670970e+003,4.174318e+000
2.676756e+003,4.161867e+000
2.682542e+003,4.150572e+000
2.688327e+003,4.136857e+000
2.694112e+003,4.122491e+000
2.699898e+003,4.114440e+000
2.705683e+003,4.100734e+000
2.711469e+003,4.091232e+000
2.717254e+003,4.076218e+000
2.723040e+003,4.059463e+000
2.728825e+003,4.044841e+000
2.734611e+003,4.030134e+000
2.740396e+003,4.016918e+000
2.746182e+003,4.009706e+000
2.751967e+003,3.995733e+000
2.757753e+003,3.981750e+000
2.763538e+003,3.970055e+000
2.769324e+003,3.957853e+000
2.775109e+003,3.943431e+000
2.780895e+003,3.926200e+000
2.786680e+003,3.916047e+000
2.792466e+003,3.898380e+000
2.798251e+003,3.886819e+000
2.804037e+003,3.873975e+000
2.809822e+003,3.854388e+000
2.815608e+003,3.830974e+000
2.821393e+003,3.819211e+000
2.827179e+003,3.801372e+000
2.832964e+003,3.775235e+000
2.838750e+003,3.746070e+000
2.844535e+003,3.717512e+000
2.850321e+003,3.696285e+000
2.856106e+003,3.669361e+000
2.861892e+003,3.655565e+000
2.867677e+003,3.643680e+000
2.873463e+003,3.631734e+000
2.879248e+003,3.622965e+000
2.885034e+003,3.605556e+000
2.890819e+003,3.592911e+000
2.896605e+003,3.555059e+000
2.902390e+003,3.529380e+000
2.908176e+003,3.498027e+000
2.913961e+003,3.458136e+000
2.919747e+003,3.434653e+000
2.925532e+003,3.425128e+000
2.931318e+003,3.430958e+000
2.937103e+003,3.432802e+000
2.942889e+003,3.437222e+000
2.948674e+003,3.423829e+000
2.954460e+003,3.396128e+000
2.960245e+003,3.363081e+000
2.966031e+003,3.357154e+000
2.971816e+003,3.389657e+000
2.977602e+003,3.402565e+000
2.983387e+003,3.414401e+000
2.989173e+003,3.404694e+000
2.994958e+003,3.389036e+000
3.000744e+003,3.392780e+000
3.006529e+003,3.361487e+000
3.012315e+003,3.315847e+000
3.018100e+003,3.324289e+000
3.023886e+003,3.322387e+000
3.029671e+003,3.288394e+000
3.035457e+003,3.289640e+000
3.041242e+003,3.300360e+000
3.047028e+003,3.277644e+000
3.052813e+003,3.278092e+000
3.058599e+003,3.240138e+000
3.064384e+003,3.203415e+000
3.070170e+003,3.223922e+000
3.075955e+003,3.203111e+000
3.081741e+003,3.160305e+000
3.087526e+003,3.163939e+000
3.093312e+003,3.137799e+000
3.099097e+003,3.100246e+000
3.104883e+003,3.093299e+000
3.110668e+003,3.064754e+000
3.116454e+003,3.007486e+000
3.122239e+003,2.988260e+000
3.128025e+003,2.994185e+000
3.133810e+003,2.956307e+000
3.139595e+003,2.960076e+000
3.145381e+003,2.943926e+000
3.151167e+003,2.926489e+000
3.156952e+003,2.906484e+000
3.162738e+003,2.885841e+000
3.168523e+003,2.859846e+000
3.174309e+003,2.840282e+000
3.180094e+003,2.807151e+000
3.185880e+003,2.783071e+000
3.191665e+003,2.774601e+000
3.197450e+003,2.717213e+000
3.203236e+003,2.724182e+000
3.209021e+003,2.681489e+000
3.214807e+003,2.652392e+000
3.220593e+003,2.637646e+000
3.226378e+003,2.634163e+000
3.232164e+003,2.619328e+000
3.237949e+003,2.620314e+000
3.243734e+003,2.590387e+000
3.249520e+003,2.609269e+000
3.255305e+003,2.572641e+000
3.261091e+003,2.580910e+000
3.266876e+003,2.580910e+000
3.272662e+003,2.540877e+000
3.278448e+003,2.546335e+000
3.284233e+003,2.548437e+000
3.290019e+003,2.528622e+000
3.295804e+003,2.532214e+000
3.301589e+003,2.526565e+000
3.307375e+003,2.497706e+000
3.313160e+003,2.491519e+000
3.318946e+003,2.495602e+000
3.324731e+003,2.472539e+000
3.330517e+003,2.477320e+000
3.336302e+003,2.440027e+000
3.342088e+003,2.453926e+000
3.347873e+003,2.448471e+000
3.353659e+003,2.423679e+000
3.359444e+003,2.413477e+000
3.365230e+003,2.383363e+000
3.371015e+003,2.406664e+000
3.376801e+003,2.397311e+000
3.382586e+003,2.379437e+000
3.388372e+003,2.383548e+000
3.394157e+003,2.332157e+000
3.399943e+003,2.357622e+000
3.405728e+003,2.351886e+000
3.411514e+003,2.344088e+000
3.417299e+003,2.321404e+000
3.423085e+003,2.271961e+000
3.428870e+003,2.282765e+000
3.434656e+003,2.261154e+000
3.440441e+003,2.226638e+000
3.446227e+003,2.112178e+000
3.452012e+003,2.247291e+000
3.457798e+003,2.230312e+000
3.463583e+003,2.197117e+000
3.469369e+003,2.217599e+000
3.475154e+003,2.188707e+000
3.480940e+003,2.125215e+000
3.486725e+003,2.180470e+000
3.492511e+003,2.244318e+000
3.498296e+003,2.230004e+000
3.504082e+003,2.073184e+000
3.509867e+003,2.129838e+000
3.515653e+003,2.293192e+000
3.521438e+003,2.192274e+000
3.527224e+003,2.067136e+000
3.533009e+003,2.309400e+000
3.538795e+003,2.307253e+000
3.544580e+003,2.023810e+000
3.550366e+003,2.211560e+000
3.556151e+003,2.323089e+000
3.561937e+003,2.175014e+000
3.567722e+003,1.551957e+000
3.573508e+003,2.308800e+000
3.579293e+003,2.259844e+000
3.585079e+003,1.989622e+000
3.590864e+003,2.133382e+000
3.596650e+003,1.999626e+000
3.602435e+003,2.156605e+000
3.608221e+003,1.730042e+000
3.614006e+003,1.764619e+000
3.619792e+003,1.602566e+000
3.625577e+003,2.073074e+000
3.631363e+003,1.808366e+000
3.637148e+003,2.304936e+000
3.642934e+003,2.275659e+000
3.648719e+003,1.064145e+000
3.654505e+003,2.057720e+000
3.660290e+003,2.394341e+000
3.666076e+003,2.322828e+000
3.671861e+003,1.624591e+000
3.677647e+003,1.581110e+000
3.683432e+003,2.317170e+000
3.689218e+003,1.320856e+000
3.695003e+003,2.213478e+000
3.700789e+003,1.924058e+000
3.706574e+003,2.141694e+000
3.712360e+003,1.400668e+000
3.718145e+003,2.072902e+000
3.723931e+003,1.705277e+000
3.729716e+003,1.905315e+000
3.735502e+003,1.027341e+000
3.741287e+003,1.728415e+000
3.747073e+003,1.394427e+000
3.752858e+003,1.288828e+000
3.758644e+003,1.699479e+000
3.764429e+003,1.979011e+000
3.770215e+003,1.751406e+000
3.776000e+003,2.265956e+000
3.781786e+003,2.107136e+000
3.787571e+003,2.213458e+000
3.793356e+003,2.223704e+000
3.799142e+003,1.703449e+000
3.804927e+003,1.766871e+000
3.810713e+003,2.181458e+000
3.816499e+003,1.422484e+000
3.822284e+003,1.340400e+000
3.828070e+003,1.894495e+000
3.833855e+003,1.649222e+000
3.839641e+003,1.277963e+000
3.845426e+003,1.923585e+000
3.851211e+003,1.324687e+000
3.856997e+003,1.645026e+000
3.862782e+003,1.571654e+000
3.868568e+003,1.484102e+000
3.874354e+003,1.610183e+000
3.880139e+003,1.533435e+000
3.885925e+003,1.493452e+000
3.891710e+003,1.575661e+000
3.897495e+003,1.801659e+000
3.903281e+003,1.328581e+000
3.909066e+003,2.094212e+000
3.914852e+003,1.970549e+000
3.920637e+003,1.864035e+000
3.926423e+003,1.905530e+000
3.932208e+003,1.754688e+000
3.937994e+003,2.042706e+000
3.943780e+003,1.841139e+000
3.949565e+003,1.845789e+000
3.955350e+003,2.010439e+000
3.961136e+003,1.968883e+000
3.966921e+003,2.025322e+000
3.972707e+003,1.978820e+000
3.978492e+003,2.007129e+000
3.984278e+003,2.003898e+000
3.990063e+003,1.971478e+000
3.995849e+003,1.973312e+000
4.001634e+003,1.990934e+000
4.007420e+003,1.958383e+000
4.013205e+003,1.966243e+000
4.018991e+003,1.955984e+000
4.024776e+003,1.939227e+000
4.030562e+003,1.951646e+000
4.036347e+003,1.942024e+000
4.042133e+003,1.932032e+000
4.047918e+003,1.928015e+000
4.053704e+003,1.919170e+000
4.059489e+003,1.909043e+000
4.065275e+003,1.906110e+000
4.071060e+003,1.902681e+000
4.076846e+003,1.888428e+000
4.082631e+003,1.883073e+000
4.088417e+003,1.864991e+000
4.094202e+003,1.871646e+000
4.099988e+003,1.865302e+000
4.105773e+003,1.833405e+000
4.111559e+003,1.848078e+000
4.117344e+003,1.840392e+000
4.123130e+003,1.831604e+000
4.128916e+003,1.827637e+000
4.134701e+003,1.814566e+000
4.140486e+003,1.802301e+000
4.146272e+003,1.798058e+000
4.152057e+003,1.797532e+000
4.157843e+003,1.783173e+000
4.163628e+003,1.777522e+000
4.169414e+003,1.769153e+000
4.175199e+003,1.765950e+000
4.180985e+003,1.754601e+000
4.186770e+003,1.752455e+000
4.192556e+003,1.740096e+000
4.198341e+003,1.737797e+000
4.204127e+003,1.727152e+000
4.209912e+003,1.724012e+000
4.215698e+003,1.710332e+000
4.221483e+003,1.707152e+000
4.227269e+003,1.699501e+000
4.233054e+003,1.691402e+000
4.238840e+003,1.687636e+000
4.244625e+003,1.678080e+000
4.250411e+003,1.670236e+000
4.256196e+003,1.666886e+000
4.261982e+003,1.659020e+000
4.267767e+003,1.651198e+000
4.273553e+003,1.649446e+000
4.279338e+003,1.634203e+000
4.285124e+003,1.632193e+000
4.290909e+003,1.626361e+000
4.296695e+003,1.619783e+000
4.302480e+003,1.615271e+000
4.308266e+003,1.607809e+000
4.314051e+003,1.598460e+000
4.319836e+003,1.592984e+000
4.325622e+003,1.587088e+000
4.331408e+003,1.580158e+000
4.337193e+003,1.572170e+000
4.342979e+003,1.567535e+000
4.348764e+003,1.560448e+000
4.354550e+003,1.556064e+000
4.360335e+003,1.549783e+000
4.366121e+003,1.544721e+000
4.371906e+003,1.539701e+000
4.377691e+003,1.532795e+000
4.383477e+003,1.525149e+000
4.389263e+003,1.520094e+000
4.395048e+003,1.519108e+000
4.400833e+003,1.510392e+000
4.406619e+003,1.502633e+000
4.412405e+003,1.496912e+000
4.418190e+003,1.491571e+000
4.423976e+003,1.484870e+000
4.429761e+003,1.478412e+000
4.435546e+003,1.474815e+000
4.441332e+003,1.473478e+000
4.447118e+003,1.459852e+000
4.452903e+003,1.457470e+000
4.458688e+003,1.450852e+000
4.464474e+003,1.446135e+000
4.470260e+003,1.436125e+000
4.476045e+003,1.435425e+000
4.481831e+003,1.429465e+000
4.487616e+003,1.424498e+000
4.493401e+003,1.415271e+000
4.499187e+003,1.411577e+000
4.504973e+003,1.410192e+000
4.510758e+003,1.401118e+000
4.516543e+003,1.398505e+000
4.522329e+003,1.387350e+000
4.528114e+003,1.386512e+000
4.533900e+003,1.381317e+000
4.539686e+003,1.375268e+000
4.545471e+003,1.372588e+000
4.551256e+003,1.365516e+000
4.557042e+003,1.362859e+000
4.562828e+003,1.355277e+000
4.568613e+003,1.348493e+000
4.574398e+003,1.348200e+000
4.580184e+003,1.343856e+000
4.585969e+003,1.335683e+000
4.591755e+003,1.330030e+000
4.597541e+003,1.327699e+000
4.603326e+003,1.324621e+000
4.609111e+003,1.318223e+000
4.614897e+003,1.313717e+000
4.620683e+003,1.310086e+000
4.626468e+003,1.307886e+000
4.632253e+003,1.303271e+000
4.638039e+003,1.295783e+000
4.643824e+003,1.290561e+000
4.649610e+003,1.285328e+000
4.655396e+003,1.281117e+000
4.661181e+003,1.274090e+000
4.666966e+003,1.273246e+000
4.672752e+003,1.269034e+000
4.678538e+003,1.265684e+000
4.684323e+003,1.262761e+000
4.690108e+003,1.255111e+000
4.695894e+003,1.249216e+000
4.701679e+003,1.244701e+000
4.707465e+003,1.242212e+000
4.713250e+003,1.238453e+000
4.719036e+003,1.228076e+000
4.724821e+003,1.224719e+000
4.730607e+003,1.220084e+000
4.736392e+003,1.217510e+000
4.742178e+003,1.212539e+000
4.747963e+003,1.212417e+000
4.753749e+003,1.204120e+000
4.759534e+003,1.201133e+000
4.765320e+003,1.202431e+000
4.771105e+003,1.196301e+000
4.776891e+003,1.187925e+000
4.782676e+003,1.186076e+000
4.788462e+003,1.182359e+000
4.794247e+003,1.176615e+000
4.800033e+003,1.171803e+000
4.805818e+003,1.169544e+000
4.811604e+003,1.162152e+000
4.817389e+003,1.161838e+000
4.823175e+003,1.154141e+000
4.828960e+003,1.152344e+000
4.834746e+003,1.145025e+000
4.840531e+003,1.139910e+000
4.846317e+003,1.139864e+000
4.852102e+003,1.137067e+000
4.857888e+003,1.133106e+000
4.863673e+003,1.131427e+000
4.869458e+003,1.122293e+000
4.875244e+003,1.122293e+000
4.881030e+003,1.116301e+000
4.886815e+003,1.112375e+000
4.892601e+003,1.104094e+000
4.898386e+003,1.105011e+000
4.904172e+003,1.101470e+000
4.909957e+003,1.096436e+000
4.915743e+003,1.094223e+000
4.921528e+003,1.088109e+000
4.927313e+003,1.081149e+000
4.933099e+003,1.080713e+000
4.938885e+003,1.075270e+000
4.944670e+003,1.070462e+000
4.950456e+003,1.068524e+000
4.956241e+003,1.061453e+000
4.962027e+003,1.063293e+000
4.967812e+003,1.057466e+000
4.973598e+003,1.055914e+000
4.979383e+003,1.048812e+000
4.985168e+003,1.043505e+000
4.990954e+003,1.040585e+000
4.996740e+003,1.038824e+000
5.002525e+003,1.035664e+000
5.008311e+003,1.031185e+000
5.014096e+003,1.024330e+000
5.019882e+003,1.020796e+000
5.025667e+003,1.015212e+000
5.031453e+003,1.012888e+000
5.037238e+003,1.009898e+000
5.043023e+003,1.007397e+000
5.048809e+003,1.001878e+000
5.054595e+003,9.986752e-001
5.060380e+003,9.975390e-001
5.066166e+003,9.928789e-001
5.071951e+003,9.831492e-001
5.077736e+003,9.836643e-001
5.083522e+003,9.775921e-001
5.089308e+003,9.760833e-001
5.095093e+003,9.723425e-001
5.100878e+003,9.683709e-001
5.106664e+003,9.627935e-001
5.112450e+003,9.577474e-001
5.118235e+003,9.544782e-001
5.124021e+003,9.533886e-001
5.129806e+003,9.501725e-001
5.135591e+003,9.405248e-001
5.141377e+003,9.281617e-001
5.147163e+003,9.374436e-001
5.152948e+003,9.257293e-001
5.158733e+003,9.227567e-001
5.164519e+003,9.016724e-001
5.170305e+003,9.027920e-001
5.176090e+003,9.111330e-001
5.181875e+003,9.021260e-001
5.187661e+003,8.921380e-001
5.193446e+003,9.060482e-001
5.199232e+003,8.910297e-001
5.205018e+003,8.158040e-001
5.210803e+003,8.827080e-001
5.216588e+003,8.754752e-001
5.222374e+003,8.648710e-001
5.228160e+003,8.611817e-001
5.233945e+003,8.567538e-001
5.239730e+003,8.757461e-001
5.245516e+003,7.926041e-001
5.251301e+003,8.594863e-001
5.257087e+003,8.412700e-001
5.262873e+003,7.659516e-001
5.268658e+003,8.286363e-001
5.274443e+003,8.587033e-001
5.280229e+003,8.313071e-001
5.286014e+003,8.258088e-001
5.291800e+003,8.056718e-001
5.297585e+003,8.429587e-001
5.303371e+003,8.354084e-001
5.309156e+003,8.059245e-001
5.314942e+003,8.198338e-001
5.320728e+003,8.294894e-001
5.326513e+003,7.538603e-001
5.332298e+003,7.717045e-001
5.338084e+003,6.811692e-001
5.343869e+003,6.746831e-001
5.349655e+003,7.701508e-001
5.355440e+003,7.443699e-001
5.361226e+003,7.910911e-001
5.367011e+003,7.994074e-001
5.372797e+003,7.750039e-001
5.378583e+003,7.438614e-001
5.384368e+003,7.334261e-001
5.390153e+003,7.828969e-001
5.395939e+003,7.215245e-001
5.401724e+003,7.711009e-001
5.407510e+003,7.517546e-001
5.413295e+003,6.560344e-001
5.419081e+003,7.737803e-001
5.424866e+003,7.543175e-001
5.430652e+003,6.967251e-001
5.436438e+003,7.128971e-001
5.442223e+003,6.819284e-001
5.448008e+003,6.951397e-001
5.453794e+003,7.498189e-001
5.459579e+003,7.002311e-001
5.465365e+003,7.168741e-001
5.471150e+003,7.327191e-001
5.476936e+003,6.870039e-001
5.482721e+003,7.385040e-001
5.488507e+003,6.904206e-001
5.494292e+003,6.846955e-001
5.500078e+003,7.182603e-001
5.505863e+003,7.010232e-001
5.511649e+003,7.130242e-001
5.517434e+003,7.052844e-001
5.523220e+003,7.031467e-001
5.529005e+003,7.049380e-001
5.534791e+003,6.941074e-001
5.540576e+003,7.027249e-001
5.546362e+003,6.925376e-001
5.552147e+003,6.887821e-001
5.557933e+003,6.934315e-001
5.563718e+003,6.875423e-001
5.569504e+003,6.865870e-001
5.575289e+003,6.833267e-001
5.581075e+003,6.808153e-001
5.586860e+003,6.765538e-001
5.592646e+003,6.769711e-001
5.598431e+003,6.712590e-001
5.604217e+003,6.680385e-001
5.610002e+003,6.598093e-001
5.615788e+003,6.622486e-001
5.621573e+003,6.561114e-001
5.627358e+003,6.551027e-001
5.633144e+003,6.545246e-001
5.638930e+003,6.479039e-001
5.644715e+003,6.467024e-001
5.650500e+003,6.423875e-001
5.656286e+003,6.438888e-001
5.662072e+003,6.387297e-001
5.667857e+003,6.339978e-001
5.673643e+003,6.304497e-001
5.679428e+003,6.278841e-001
5.685213e+003,6.208565e-001
5.690999e+003,6.238448e-001
5.696785e+003,6.168352e-001
5.702570e+003,6.151695e-001
5.708355e+003,6.088406e-001
5.714141e+003,6.098506e-001
5.719927e+003,6.041761e-001
5.725712e+003,6.025148e-001
5.731498e+003,6.024132e-001
5.737283e+003,5.980840e-001
5.743068e+003,5.930788e-001
5.748854e+003,5.916978e-001
5.754640e+003,5.916656e-001
5.760425e+003,5.866005e-001
5.766210e+003,5.819319e-001
5.771996e+003,5.741532e-001
5.777782e+003,5.761346e-001
5.783567e+003,5.715223e-001
5.789353e+003,5.698066e-001
5.795138e+003,5.630160e-001
5.800923e+003,5.640789e-001
5.806709e+003,5.600358e-001
5.812495e+003,5.556700e-001
5.818280e+003,5.545797e-001
5.824065e+003,5.521595e-001
5.829851e+003,5.440385e-001
5.835637e+003,5.463322e-001
5.841422e+003,5.421936e-001
5.847208e+003,5.406645e-001
5.852993e+003,5.361863e-001
5.858778e+003,5.362083e-001
5.864564e+003,5.333630e-001
5.870350e+003,5.280477e-001
5.876135e+003,5.289283e-001
5.881920e+003,5.238214e-001
5.887706e+003,5.237935e-001
5.893491e+003,5.155157e-001
5.899277e+003,5.123559e-001
5.905063e+003,5.133632e-001
5.910848e+003,5.118224e-001
5.916633e+003,5.071928e-001
5.922419e+003,5.027847e-001
5.928205e+003,5.020703e-001
5.933990e+003,5.001680e-001
5.939775e+003,4.982514e-001
5.945561e+003,4.933516e-001
5.951346e+003,4.904659e-001
5.957132e+003,4.876021e-001
5.962917e+003,4.848067e-001
5.968703e+003,4.829915e-001
5.974488e+003,4.809914e-001
5.980274e+003,4.761606e-001
5.986060e+003,4.717598e-001
5.991845e+003,4.732214e-001
5.997630e+003,4.707803e-001
6.003416e+003,4.677305e-001
6.009201e+003,4.670955e-001
6.014987e+003,4.610775e-001
6.020772e+003,4.588424e-001
6.026558e+003,4.556470e-001
6.032343e+003,4.554748e-001
6.038129e+003,4.492134e-001
6.043915e+003,4.485421e-001
6.049700e+003,4.450814e-001
6.055485e+003,4.459961e-001
6.061271e+003,4.381877e-001
6.067056e+003,4.370018e-001
6.072842e+003,4.379902e-001
6.078627e+003,4.322689e-001
6.084413e+003,4.367523e-001
6.090198e+003,4.339830e-001
6.095984e+003,4.275202e-001
6.101769e+003,4.242389e-001
6.107555e+003,4.202017e-001
6.113340e+003,4.194994e-001
6.119126e+003,4.181911e-001
6.124911e+003,4.164077e-001
6.130697e+003,4.135898e-001
6.136482e+003,4.097646e-001
6.142268e+003,4.123111e-001
6.148053e+003,4.085255e-001
6.153839e+003,4.052117e-001
6.159624e+003,4.029987e-001
6.165410e+003,3.991385e-001
6.171195e+003,4.022663e-001
6.176981e+003,3.931926e-001
6.182766e+003,3.946820e-001
6.188552e+003,3.893797e-001
6.194337e+003,3.896898e-001
6.200123e+003,3.859881e-001
6.205908e+003,3.834491e-001
6.211694e+003,3.829959e-001
6.217479e+003,3.813759e-001
6.223265e+003,3.776228e-001
6.229050e+003,3.738525e-001
6.234835e+003,3.743832e-001
6.240621e+003,3.703195e-001
6.246407e+003,3.705474e-001
6.252192e+003,3.660854e-001
6.257978e+003,3.640180e-001
6.263763e+003,3.599131e-001
6.269549e+003,3.612490e-001
6.275334e+003,3.572936e-001
6.281120e+003,3.585590e-001
6.286905e+003,3.539316e-001
6.292690e+003,3.553832e-001
6.298476e+003,3.512930e-001
6.304262e+003,3.484156e-001
6.310047e+003,3.472109e-001
6.315833e+003,3.457577e-001
6.321618e+003,3.447341e-001
6.327404e+003,3.437558e-001
6.333189e+003,3.381259e-001
6.338975e+003,3.366680e-001
6.344760e+003,3.319913e-001
6.350545e+003,3.294776e-001
6.356331e+003,3.309990e-001
6.362117e+003,3.235620e-001
6.367902e+003,3.265048e-001
6.373688e+003,3.221811e-001
6.379473e+003,3.205703e-001
6.385259e+003,3.178129e-001
6.391044e+003,3.157072e-001
6.396830e+003,3.132530e-001
6.402615e+003,3.140918e-001
6.408400e+003,3.101177e-001
6.414186e+003,3.098678e-001
6.419972e+003,3.099199e-001
6.425757e+003,3.056558e-001
6.431542e+003,3.032276e-001
6.437328e+003,3.027399e-001
6.443113e+003,3.015481e-001
6.448899e+003,2.999690e-001
6.454685e+003,3.001356e-001
6.460470e+003,2.981332e-001
6.466255e+003,2.940465e-001
6.472041e+003,2.885304e-001
6.477827e+003,2.913193e-001
6.483612e+003,2.871530e-001
6.489397e+003,2.838430e-001
6.495183e+003,2.830510e-001
6.500968e+003,2.849753e-001
6.506754e+003,2.816539e-001
6.512540e+003,2.802506e-001
6.518325e+003,2.768316e-001
6.524110e+003,2.756789e-001
6.529896e+003,2.762105e-001
6.535682e+003,2.738056e-001
6.541467e+003,2.707437e-001
6.547252e+003,2.673010e-001
6.553038e+003,2.666326e-001
6.558823e+003,2.661582e-001
6.564609e+003,2.647824e-001
6.570395e+003,2.641150e-001
6.576180e+003,2.593681e-001
6.581965e+003,2.567872e-001
6.587751e+003,2.576226e-001
6.593537e+003,2.547695e-001
6.599322e+003,2.550141e-001
6.605107e+003,2.529695e-001
6.610893e+003,2.492296e-001
6.616678e+003,2.476498e-001
6.622464e+003,2.458851e-001
6.628250e+003,2.432065e-001
6.634035e+003,2.470763e-001
6.639820e+003,2.419948e-001
6.645606e+003,2.395610e-001
6.651391e+003,2.374178e-001
6.657177e+003,2.376805e-001
6.662962e+003,2.346332e-001
6.668748e+003,2.347079e-001
6.674533e+003,2.325911e-001
6.680319e+003,2.343553e-001
6.686104e+003,2.289133e-001
6.691890e+003,2.276929e-001
6.697675e+003,2.266046e-001
6.703461e+003,2.280592e-001
6.709246e+003,2.252170e-001
6.715032e+003,2.255803e-001
6.720817e+003,2.245562e-001
6.726603e+003,2.181898e-001
6.732388e+003,2.180759e-001
6.738174e+003,2.160508e-001
6.743959e+003,2.188427e-001
6.749745e+003,2.153122e-001
6.755530e+003,2.118710e-001
6.761316e+003,2.111453e-001
6.767101e+003,2.131629e-001
6.772887e+003,2.100838e-001
6.778672e+003,2.080261e-001
6.784458e+003,2.079703e-001
6.790243e+003,2.028574e-001
6.796029e+003,2.058276e-001
6.801814e+003,1.985010e-001
6.807600e+003,2.038219e-001
6.813385e+003,1.974776e-001
6.819171e+003,1.944854e-001
6.824956e+003,1.969534e-001
6.830742e+003,1.954201e-001
6.836527e+003,1.925286e-001
6.842313e+003,1.941651e-001
6.848098e+003,1.895527e-001
6.853884e+003,1.920472e-001
6.859669e+003,1.910138e-001
6.865455e+003,1.875472e-001
6.871240e+003,1.887125e-001
6.877026e+003,1.868203e-001
6.882811e+003,1.820849e-001
6.888597e+003,1.803546e-001
6.894382e+003,1.834373e-001
6.900167e+003,1.773443e-001
6.905953e+003,1.764801e-001
6.911739e+003,1.778753e-001
6.917524e+003,1.727185e-001
6.923310e+003,1.751023e-001
6.929095e+003,1.767883e-001
6.934881e+003,1.725485e-001
6.940666e+003,1.731022e-001
6.946452e+003,1.692585e-001
6.952237e+003,1.694207e-001
6.958022e+003,1.685192e-001
6.963808e+003,1.680212e-001
6.969594e+003,1.630319e-001
6.975379e+003,1.674691e-001
6.981165e+003,1.626682e-001
6.986950e+003,1.629131e-001
6.992735e+003,1.604124e-001
6.998521e+003,1.605698e-001
7.004307e+003,1.580558e-001
7.010092e+003,1.567859e-001
7.015877e+003,1.561015e-001
7.021663e+003,1.514621e-001
7.027449e+003,1.519431e-001
7.033234e+003,1.530184e-001
7.039020e+003,1.536440e-001
7.044805e+003,1.508607e-001
7.050590e+003,1.489931e-001
7.056376e+003,1.495668e-001
7.062162e+003,1.499312e-001
7.067947e+003,1.420378e-001
7.073732e+003,1.441786e-001
7.079518e+003,1.449242e-001
7.085304e+003,1.425626e-001
7.091089e+003,1.427494e-001
7.096875e+003,1.361614e-001
7.102660e+003,1.395830e-001
7.108445e+003,1.342117e-001
7.114231e+003,1.367273e-001
7.120017e+003,1.336743e-001
7.125802e+003,1.361834e-001
7.131587e+003,1.348803e-001
7.137373e+003,1.271704e-001
7.143159e+003,1.263078e-001
7.148944e+003,1.310149e-001
7.154729e+003,1.293183e-001
7.160515e+003,1.229768e-001
7.166300e+003,1.191361e-001
7.172086e+003,1.266824e-001
7.177872e+003,1.244745e-001
7.183657e+003,1.173770e-001
7.189442e+003,1.248099e-001
7.195228e+003,1.234712e-001
7.201013e+003,1.186743e-001
7.206799e+003,1.193772e-001
7.212584e+003,1.199103e-001
7.218370e+003,1.134100e-001
7.224155e+003,1.167793e-001
7.229941e+003,1.103004e-001
7.235727e+003,1.177306e-001
7.241512e+003,1.021539e-001
7.247297e+003,1.155053e-001
7.253083e+003,1.107769e-001
7.258868e+003,1.150394e-001
7.264654e+003,1.119751e-001
7.270439e+003,1.098249e-001
7.276225e+003,1.098397e-001
7.282010e+003,1.077217e-001
7.287796e+003,1.063570e-001
7.293582e+003,1.002406e-001
7.299367e+003,9.985521e-002
7.305152e+003,1.012616e-001
7.310938e+003,9.731252e-002
7.316723e+003,1.041186e-001
7.322509e+003,9.848380e-002
7.328294e+003,9.238955e-002
7.334080e+003,1.028467e-001
7.339865e+003,8.863562e-002
7.345651e+003,9.372397e-002
7.351437e+003,9.661828e-002
7.357222e+003,9.346263e-002
7.363007e+003,9.883600e-002
7.368793e+003,9.489174e-002
7.374578e+003,9.113895e-002
7.380364e+003,9.246869e-002
7.386149e+003,9.564292e-002
7.391935e+003,9.454996e-002
7.397720e+003,9.537341e-002
7.403506e+003,9.129044e-002
7.409291e+003,9.333395e-002
7.415077e+003,9.134153e-002
7.420862e+003,8.896988e-002
7.426648e+003,9.119046e-002
7.432433e+003,9.155171e-002
7.438219e+003,9.184002e-002
7.444004e+003,9.216671e-002
7.449790e+003,8.631211e-002
7.455575e+003,8.857701e-002
7.461361e+003,8.859617e-002
7.467146e+003,8.776380e-002
7.472932e+003,8.458828e-002
7.478717e+003,8.438165e-002
7.484503e+003,8.195782e-002
7.490288e+003,8.260497e-002
7.496074e+003,8.199238e-002
7.501859e+003,7.914789e-002
7.507645e+003,7.841606e-002
7.513430e+003,8.409050e-002
7.519216e+003,7.818647e-002
7.525001e+003,8.111065e-002
7.530787e+003,7.818782e-002
7.536572e+003,7.631352e-002
7.542357e+003,7.900812e-002
7.548143e+003,7.421821e-002
7.553929e+003,7.545454e-002
7.559714e+003,7.595772e-002
7.565500e+003,7.638894e-002
7.571285e+003,7.116108e-002
7.577071e+003,7.269298e-002
7.582856e+003,7.184629e-002
7.588642e+003,7.330052e-002
7.594427e+003,7.230853e-002
7.600212e+003,7.210697e-002
7.605998e+003,7.148825e-002
7.611784e+003,6.638443e-002
7.617569e+003,7.038740e-002
7.623354e+003,6.864393e-002
7.629140e+003,6.628522e-002
7.634926e+003,6.487580e-002
7.640711e+003,6.501066e-002
7.646497e+003,6.268243e-002
7.652282e+003,6.313426e-002
7.658067e+003,6.402127e-002
7.663853e+003,6.573524e-002
7.669639e+003,6.155495e-002
7.675424e+003,6.198887e-002
7.681209e+003,5.930178e-002
7.686995e+003,6.266239e-002
7.692781e+003,6.029108e-002
7.698566e+003,6.102709e-002
7.704352e+003,5.870469e-002
7.710137e+003,6.192526e-002
7.715922e+003,5.758240e-002
7.721708e+003,5.832003e-002
7.727494e+003,5.449775e-002
7.733279e+003,5.500302e-002
7.739064e+003,5.660874e-002
7.744850e+003,5.611785e-002
7.750635e+003,5.396055e-002
7.756421e+003,5.500114e-002
7.762207e+003,5.567816e-002
7.767992e+003,5.384948e-002
7.773777e+003,5.113256e-002
7.779563e+003,4.825597e-002
7.785349e+003,5.183463e-002
7.791134e+003,5.333705e-002
7.796919e+003,4.783599e-002
7.802705e+003,4.823804e-002
7.808490e+003,4.970528e-002
7.814276e+003,4.634055e-002
7.820062e+003,5.089132e-002
7.825847e+003,4.828478e-002
7.831632e+003,4.564204e-002
7.837418e+003,4.847010e-002
7.843204e+003,4.919467e-002
7.848989e+003,4.319204e-002
7.854774e+003,4.437869e-002
7.860560e+003,4.312186e-002
7.866345e+003,4.277945e-002
7.872131e+003,4.137591e-002
7.877917e+003,4.379313e-002
7.883702e+003,3.996698e-002
7.889487e+003,3.981936e-002
7.895273e+003,3.799783e-002
7.901059e+003,3.937115e-002
7.906844e+003,4.030328e-002
7.912629e+003,3.980104e-002
7.918415e+003,3.836839e-002
7.924200e+003,3.796760e-002
7.929986e+003,3.841177e-002
7.935771e+003,3.883390e-002
7.941557e+003,3.995517e-002
7.947342e+003,3.688689e-002
7.953128e+003,3.667575e-002
7.958914e+003,3.674648e-002
7.964699e+003,3.715876e-002
7.970484e+003,3.629788e-002
7.976270e+003,3.438290e-002
7.982055e+003,2.979914e-002
7.987841e+003,3.548332e-002
7.993626e+003,3.235019e-002
7.999412e+003,3.197149e-002
8.005197e+003,3.446165e-002
8.010983e+003,3.231085e-002
8.016768e+003,3.020787e-002
8.022554e+003,3.329086e-002
8.028339e+003,3.142865e-002
8.034125e+003,2.966758e-002
8.039910e+003,2.706748e-002
8.045696e+003,2.741439e-002
8.051481e+003,3.025075e-002
8.057267e+003,2.781205e-002
8.063052e+003,2.490503e-002
8.068838e+003,2.843787e-002
8.074623e+003,2.815108e-002
8.080409e+003,2.648864e-002
8.086194e+003,2.423712e-002
8.091979e+003,2.657854e-002
8.097765e+003,2.633201e-002
8.103551e+003,2.503581e-002
8.109336e+003,2.355174e-002
8.115122e+003,2.396543e-002
8.120907e+003,2.381048e-002
8.126693e+003,2.310888e-002
8.132478e+003,2.545652e-002
8.138264e+003,2.560976e-002
8.144049e+003,2.150566e-002
8.149834e+003,2.200988e-002
8.155620e+003,2.443939e-002
8.161406e+003,2.083984e-002
8.167191e+003,2.458929e-002
8.172977e+003,1.891874e-002
8.178762e+003,2.170937e-002
8.184548e+003,1.959131e-002
8.190333e+003,1.946389e-002
8.196118e+003,2.011411e-002
8.201904e+003,1.977113e-002
8.207689e+003,1.977075e-002
8.213476e+003,1.849223e-002
8.219261e+003,1.927379e-002
8.225046e+003,2.043015e-002
8.230832e+003,1.712136e-002
8.236617e+003,2.105204e-002
8.242402e+003,1.773464e-002
8.248188e+003,1.614206e-002
8.253974e+003,1.474655e-002
8.259759e+003,1.536620e-002
8.265545e+003,1.584387e-002
8.271330e+003,1.514310e-002
8.277115e+003,1.549264e-002
8.282901e+003,1.353125e-002
8.288687e+003,1.288173e-002
8.294472e+003,1.571696e-002
8.300258e+003,1.615224e-002
8.306043e+003,1.482693e-002
8.311828e+003,1.528962e-002
8.317614e+003,1.408713e-002
8.323399e+003,1.256047e-002
8.329185e+003,1.073302e-002
8.334971e+003,1.220410e-002
8.340756e+003,1.399245e-002
8.346542e+003,1.037854e-002
8.352327e+003,1.333183e-002
8.358112e+003,1.252161e-002
8.363898e+003,8.079523e-003
8.369684e+003,1.207506e-002
8.375469e+003,1.111970e-002
8.381255e+003,1.306536e-002
8.387040e+003,1.092633e-002
8.392825e+003,1.002477e-002
8.398611e+003,1.164444e-002
8.404396e+003,1.028867e-002
8.410182e+003,6.473149e-003
8.415968e+003,1.356724e-002
8.421753e+003,9.373553e-003
8.427538e+003,9.015024e-003
8.433324e+003,7.772216e-003
8.439109e+003,8.126074e-003
8.444895e+003,9.343787e-003
8.450681e+003,9.069651e-003
8.456466e+003,1.142491e-002
8.462251e+003,9.982861e-003
8.468037e+003,9.619273e-003
8.473822e+003,1.001276e-002
8.479608e+003,7.560953e-003
8.485394e+003,7.904628e-003
8.491179e+003,6.586608e-003
8.496965e+003,9.102167e-003
8.500821e+003,7.916727e-003