File: olivine/FTIR/SC1-2-800C-7hr-c08-copper.CSV
4.493401e+002,2.017094e-001
4.551256e+002,3.472509e-001
4.609111e+002,1.318935e-001
4.666966e+002,3.022392e-001
4.724821e+002,3.883179e-001
4.782676e+002,2.883083e-001
4.840531e+002,2.570708e-002
4.898386e+002,1.307759e-001
4.956241e+002,3.170232e-001
5.014096e+002,3.904464e-001
5.071951e+002,3.001291e-001
5.129806e+002,3.604416e-001
5.187661e+002,1.161645e+000
5.245516e+002,6.151259e-001
5.303371e+002,5.116001e-001
5.361226e+002,7.479132e-001
5.419081e+002,6.496601e-001
5.476935e+002,1.091291e+000
5.534791e+002,7.784556e-001
5.592646e+002,9.384677e-001
5.650500e+002,1.059471e+000
5.708356e+002,1.341432e+000
5.766210e+002,1.389466e+000
5.824066e+002,1.335047e+000
5.881920e+002,1.337654e+000
5.939775e+002,1.471046e+000
5.997631e+002,1.609204e+000
6.055485e+002,1.797097e+000
6.113340e+002,1.663289e+000
6.171195e+002,1.734416e+000
6.229050e+002,1.739266e+000
6.286905e+002,1.868144e+000
6.344760e+002,1.809869e+000
6.402615e+002,1.827293e+000
6.460470e+002,2.186632e+000
6.518325e+002,1.989040e+000
6.576180e+002,1.868643e+000
6.634035e+002,1.876329e+000
6.691890e+002,1.724534e+000
6.749745e+002,1.994070e+000
6.807599e+002,1.891936e+000
6.865455e+002,1.864384e+000
6.923309e+002,1.960107e+000
6.981165e+002,2.057668e+000
7.039020e+002,1.962748e+000
7.096874e+002,1.987160e+000
7.154730e+002,1.851282e+000
7.212584e+002,2.054269e+000
7.270439e+002,2.005097e+000
7.328294e+002,2.099571e+000
7.386149e+002,2.102092e+000
7.444004e+002,1.999809e+000
7.501859e+002,1.812542e+000
7.559714e+002,1.978745e+000
7.617569e+002,1.961096e+000
7.675424e+002,2.013033e+000
7.733279e+002,1.998846e+000
7.791134e+002,2.058281e+000
7.848989e+002,2.034305e+000
7.906844e+002,1.963513e+000
7.964699e+002,2.044864e+000
8.022554e+002,1.929140e+000
8.080409e+002,1.964372e+000
8.138264e+002,1.924642e+000
8.196119e+002,2.085279e+000
8.253973e+002,1.974472e+000
8.311829e+002,2.064007e+000
8.369683e+002,1.971622e+000
8.427538e+002,2.108834e+000
8.485394e+002,2.018275e+000
8.543248e+002,1.979920e+000
8.601104e+002,2.068055e+000
8.658958e+002,2.014609e+000
8.716813e+002,2.007211e+000
8.774668e+002,1.999679e+000
8.832523e+002,2.000842e+000
8.890378e+002,2.005558e+000
8.948233e+002,2.082277e+000
9.006088e+002,2.176881e+000
9.063943e+002,2.075120e+000
9.121798e+002,2.097368e+000
9.179653e+002,2.038985e+000
9.237508e+002,2.049775e+000
9.295363e+002,2.088846e+000
9.353218e+002,2.064475e+000
9.411072e+002,2.045581e+000
9.468928e+002,2.016499e+000
9.526783e+002,2.081108e+000
9.584637e+002,2.020996e+000
9.642493e+002,2.099788e+000
9.700347e+002,2.083297e+000
9.758203e+002,2.043743e+000
9.816057e+002,2.094877e+000
9.873912e+002,2.181818e+000
9.931768e+002,2.062357e+000
9.989622e+002,2.072958e+000
1.004748e+003,2.160107e+000
1.010533e+003,2.131100e+000
1.016319e+003,2.124481e+000
1.022104e+003,2.142770e+000
1.027890e+003,2.024962e+000
1.033675e+003,2.124817e+000
1.039461e+003,2.072262e+000
1.045246e+003,2.087321e+000
1.051032e+003,2.065137e+000
1.056817e+003,2.166420e+000
1.062603e+003,2.156042e+000
1.068388e+003,2.080439e+000
1.074174e+003,2.268311e+000
1.079959e+003,2.182939e+000
1.085745e+003,2.160128e+000
1.091530e+003,2.087448e+000
1.097316e+003,2.104172e+000
1.103101e+003,2.164045e+000
1.108887e+003,2.257812e+000
1.114672e+003,2.095100e+000
1.120458e+003,2.155895e+000
1.126243e+003,2.072527e+000
1.132029e+003,2.126513e+000
1.137814e+003,2.243012e+000
1.143600e+003,2.236205e+000
1.149385e+003,2.195874e+000
1.155171e+003,2.171031e+000
1.160956e+003,2.156226e+000
1.166742e+003,2.162502e+000
1.172527e+003,2.153925e+000
1.178313e+003,2.243401e+000
1.184098e+003,2.223216e+000
1.189884e+003,2.117768e+000
1.195669e+003,2.170810e+000
1.201455e+003,2.191436e+000
1.207240e+003,2.204127e+000
1.213026e+003,2.246351e+000
1.218811e+003,2.145593e+000
1.224597e+003,2.198913e+000
1.230382e+003,2.126745e+000
1.236167e+003,2.169662e+000
1.241953e+003,2.156778e+000
1.247739e+003,2.189665e+000
1.253524e+003,2.222905e+000
1.259310e+003,2.079380e+000
1.265095e+003,2.142543e+000
1.270880e+003,2.226762e+000
1.276666e+003,2.153873e+000
1.282452e+003,2.198570e+000
1.288237e+003,2.126360e+000
1.294022e+003,2.175577e+000
1.299808e+003,2.224354e+000
1.305594e+003,2.210663e+000
1.311379e+003,2.188184e+000
1.317164e+003,2.188563e+000
1.322950e+003,2.203173e+000
1.328735e+003,2.177753e+000
1.334521e+003,2.159400e+000
1.340307e+003,2.086349e+000
1.346092e+003,2.235277e+000
1.351877e+003,2.138848e+000
1.357663e+003,2.169282e+000
1.363448e+003,2.193790e+000
1.369234e+003,2.159146e+000
1.375019e+003,2.246630e+000
1.380805e+003,2.190949e+000
1.386590e+003,2.199888e+000
1.392376e+003,2.201092e+000
1.398161e+003,2.199961e+000
1.403947e+003,2.125142e+000
1.409732e+003,2.154495e+000
1.415518e+003,2.177847e+000
1.421303e+003,2.122482e+000
1.427089e+003,2.135365e+000
1.432874e+003,2.152183e+000
1.438660e+003,2.144480e+000
1.444445e+003,2.136580e+000
1.450231e+003,2.143142e+000
1.456016e+003,2.172776e+000
1.461802e+003,2.163110e+000
1.467587e+003,2.105772e+000
1.473373e+003,2.022569e+000
1.479158e+003,2.209018e+000
1.484944e+003,2.180761e+000
1.490729e+003,2.043206e+000
1.496515e+003,2.033708e+000
1.502300e+003,2.096828e+000
1.508086e+003,1.897789e+000
1.513871e+003,2.126920e+000
1.519657e+003,2.086919e+000
1.525442e+003,2.158777e+000
1.531228e+003,2.110942e+000
1.537013e+003,2.126430e+000
1.542799e+003,1.949630e+000
1.548584e+003,2.124684e+000
1.554370e+003,2.183578e+000
1.560155e+003,1.926782e+000
1.565941e+003,2.212261e+000
1.571726e+003,2.224179e+000
1.577512e+003,2.086683e+000
1.583297e+003,2.251831e+000
1.589083e+003,2.201195e+000
1.594868e+003,2.198079e+000
1.600654e+003,2.182366e+000
1.606439e+003,2.164925e+000
1.612225e+003,2.126932e+000
1.618010e+003,2.082359e+000
1.623796e+003,2.129965e+000
1.629581e+003,2.173904e+000
1.635367e+003,2.064957e+000
1.641152e+003,2.137186e+000
1.646938e+003,2.015688e+000
1.652723e+003,2.070456e+000
1.658509e+003,2.293400e+000
1.664294e+003,2.268938e+000
1.670080e+003,2.157384e+000
1.675865e+003,2.236903e+000
1.681651e+003,2.304365e+000
1.687436e+003,2.079231e+000
1.693222e+003,2.186802e+000
1.699007e+003,2.233426e+000
1.704793e+003,2.198937e+000
1.710578e+003,2.280617e+000
1.716364e+003,2.108747e+000
1.722149e+003,2.231498e+000
1.727935e+003,2.280991e+000
1.733720e+003,2.173151e+000
1.739506e+003,2.234533e+000
1.745291e+003,2.271091e+000
1.751077e+003,2.206317e+000
1.756862e+003,2.266127e+000
1.762648e+003,2.266189e+000
1.768433e+003,2.438294e+000
1.774219e+003,2.282181e+000
1.780004e+003,2.191819e+000
1.785790e+003,2.318373e+000
1.791575e+003,2.286549e+000
1.797361e+003,2.307047e+000
1.803146e+003,2.295075e+000
1.808932e+003,2.235924e+000
1.814717e+003,2.247673e+000
1.820503e+003,2.277578e+000
1.826288e+003,2.365664e+000
1.832074e+003,2.285624e+000
1.837859e+003,2.291565e+000
1.843645e+003,2.214788e+000
1.849430e+003,2.290257e+000
1.855216e+003,2.336448e+000
1.861001e+003,2.393723e+000
1.866786e+003,2.238392e+000
1.872572e+003,2.288146e+000
1.878358e+003,2.297875e+000
1.884143e+003,2.423485e+000
1.889929e+003,2.302567e+000
1.895714e+003,2.394518e+000
1.901500e+003,2.313802e+000
1.907285e+003,2.373662e+000
1.913071e+003,2.313377e+000
1.918856e+003,2.344609e+000
1.924641e+003,2.375564e+000
1.930427e+003,2.305095e+000
1.936213e+003,2.301527e+000
1.941998e+003,2.304077e+000
1.947783e+003,2.368623e+000
1.953569e+003,2.236065e+000
1.959354e+003,2.324678e+000
1.965140e+003,2.246244e+000
1.970925e+003,2.307537e+000
1.976711e+003,2.453558e+000
1.982496e+003,2.375397e+000
1.988282e+003,2.195746e+000
1.994068e+003,2.385930e+000
1.999853e+003,2.283051e+000
2.005638e+003,2.274639e+000
2.011424e+003,2.369318e+000
2.017209e+003,2.353520e+000
2.022995e+003,2.371660e+000
2.028780e+003,2.255623e+000
2.034566e+003,2.250136e+000
2.040351e+003,2.433418e+000
2.046137e+003,2.389449e+000
2.051922e+003,2.273475e+000
2.057708e+003,2.004373e+000
2.063493e+003,1.769328e+000
2.069279e+003,1.584966e+000
2.075064e+003,1.436795e+000
2.080850e+003,1.359209e+000
2.086635e+003,1.275090e+000
2.092421e+003,1.202840e+000
2.098206e+003,1.154222e+000
2.103992e+003,1.107054e+000
2.109777e+003,1.078272e+000
2.115563e+003,1.039341e+000
2.121348e+003,1.016680e+000
2.127134e+003,9.896491e-001
2.132919e+003,9.685053e-001
2.138705e+003,9.394943e-001
2.144490e+003,9.218152e-001
2.150276e+003,9.031983e-001
2.156061e+003,8.857465e-001
2.161847e+003,8.641084e-001
2.167632e+003,8.445842e-001
2.173418e+003,8.275955e-001
2.179203e+003,8.083678e-001
2.184989e+003,7.921718e-001
2.190774e+003,7.720968e-001
2.196560e+003,7.560387e-001
2.202345e+003,7.395650e-001
2.208131e+003,7.226761e-001
2.213916e+003,7.062349e-001
2.219702e+003,6.891296e-001
2.225487e+003,6.724704e-001
2.231273e+003,6.595675e-001
2.237058e+003,6.447768e-001
2.242844e+003,6.317186e-001
2.248629e+003,6.158354e-001
2.254415e+003,6.042036e-001
2.260200e+003,5.911447e-001
2.265986e+003,5.811688e-001
2.271771e+003,5.680080e-001
2.277557e+003,5.543368e-001
2.283342e+003,5.433161e-001
2.289128e+003,5.296889e-001
2.294913e+003,5.226306e-001
2.300699e+003,5.105031e-001
2.306484e+003,5.024028e-001
2.312270e+003,4.927244e-001
2.318055e+003,4.839452e-001
2.323841e+003,4.788283e-001
2.329626e+003,4.703072e-001
2.335412e+003,4.603778e-001
2.341197e+003,4.515087e-001
2.346983e+003,4.370074e-001
2.352768e+003,4.307549e-001
2.358554e+003,4.354531e-001
2.364339e+003,4.214627e-001
2.370125e+003,4.004960e-001
2.375910e+003,3.844571e-001
2.381696e+003,3.712679e-001
2.387481e+003,3.591897e-001
2.393267e+003,3.504007e-001
2.399052e+003,3.427030e-001
2.404838e+003,3.337837e-001
2.410623e+003,3.251567e-001
2.416409e+003,3.186858e-001
2.422194e+003,3.103993e-001
2.427980e+003,3.030331e-001
2.433765e+003,2.957212e-001
2.439551e+003,2.906049e-001
2.445336e+003,2.832792e-001
2.451122e+003,2.768232e-001
2.456907e+003,2.726069e-001
2.462693e+003,2.665893e-001
2.468478e+003,2.629459e-001
2.474264e+003,2.628359e-001
2.480049e+003,2.619502e-001
2.485834e+003,2.633396e-001
2.491620e+003,2.573071e-001
2.497406e+003,2.503123e-001
2.503191e+003,2.395082e-001
2.508977e+003,2.273914e-001
2.514762e+003,2.159061e-001
2.520548e+003,2.077713e-001
2.526333e+003,2.005540e-001
2.532119e+003,1.940488e-001
2.537904e+003,1.874642e-001
2.543689e+003,1.815084e-001
2.549475e+003,1.761012e-001
2.555260e+003,1.726431e-001
2.561046e+003,1.670233e-001
2.566832e+003,1.622947e-001
2.572617e+003,1.566772e-001
2.578403e+003,1.514637e-001
2.584188e+003,1.472436e-001
2.589973e+003,1.415989e-001
2.595759e+003,1.361186e-001
2.601544e+003,1.300114e-001
2.607330e+003,1.254631e-001
2.613115e+003,1.218688e-001
2.618901e+003,1.167117e-001
2.624687e+003,1.134536e-001
2.630472e+003,1.097647e-001
2.636258e+003,1.071772e-001
2.642043e+003,1.034117e-001
2.647828e+003,9.867799e-002
2.653614e+003,9.368186e-002
2.659399e+003,8.944764e-002
2.665185e+003,8.357762e-002
2.670970e+003,7.795269e-002
2.676756e+003,7.225659e-002
2.682542e+003,6.524753e-002
2.688327e+003,5.885383e-002
2.694112e+003,5.218474e-002
2.699898e+003,4.536952e-002
2.705683e+003,3.839068e-002
2.711469e+003,3.238685e-002
2.717254e+003,2.612044e-002
2.723040e+003,2.060686e-002
2.728825e+003,1.599518e-002
2.734611e+003,1.171354e-002
2.740396e+003,8.151080e-003
2.746182e+003,5.004797e-003
2.751967e+003,1.579985e-003
2.757753e+003,-2.078751e-003
2.763538e+003,-4.281349e-003
2.769324e+003,-6.514582e-003
2.775109e+003,-9.393138e-003
2.780895e+003,-1.214192e-002
2.786680e+003,-1.381364e-002
2.792466e+003,-1.685686e-002
2.798251e+003,-1.867994e-002
2.804037e+003,-1.997562e-002
2.809822e+003,-2.277029e-002
2.815608e+003,-2.535244e-002
2.821393e+003,-2.676627e-002
2.827179e+003,-2.949518e-002
2.832964e+003,-3.114507e-002
2.838750e+003,-3.458068e-002
2.844535e+003,-3.445555e-002
2.850321e+003,-3.284027e-002
2.856106e+003,-3.854959e-002
2.861892e+003,-4.344374e-002
2.867677e+003,-4.766193e-002
2.873463e+003,-5.091928e-002
2.879248e+003,-5.414186e-002
2.885034e+003,-5.689636e-002
2.890819e+003,-5.819061e-002
2.896605e+003,-6.196416e-002
2.902390e+003,-6.413710e-002
2.908176e+003,-6.629489e-002
2.913961e+003,-6.574764e-002
2.919747e+003,-6.546279e-002
2.925532e+003,-6.836333e-002
2.931318e+003,-7.202842e-002
2.937103e+003,-7.710453e-002
2.942889e+003,-7.996016e-002
2.948674e+003,-8.275582e-002
2.954460e+003,-8.315960e-002
2.960245e+003,-8.589092e-002
2.966031e+003,-8.816387e-002
2.971816e+003,-9.066281e-002
2.977602e+003,-9.410534e-002
2.983387e+003,-9.749167e-002
2.989173e+003,-1.017267e-001
2.994958e+003,-1.067311e-001
3.000744e+003,-1.104377e-001
3.006529e+003,-1.158665e-001
3.012315e+003,-1.203656e-001
3.018100e+003,-1.261276e-001
3.023886e+003,-1.311340e-001
3.029671e+003,-1.358945e-001
3.035457e+003,-1.395002e-001
3.041242e+003,-1.431889e-001
3.047028e+003,-1.463801e-001
3.052813e+003,-1.490646e-001
3.058599e+003,-1.522138e-001
3.064384e+003,-1.545984e-001
3.070170e+003,-1.576366e-001
3.075955e+003,-1.599261e-001
3.081741e+003,-1.621872e-001
3.087526e+003,-1.640695e-001
3.093312e+003,-1.652777e-001
3.099097e+003,-1.667600e-001
3.104883e+003,-1.680803e-001
3.110668e+003,-1.702941e-001
3.116454e+003,-1.721111e-001
3.122239e+003,-1.739413e-001
3.128025e+003,-1.744750e-001
3.133810e+003,-1.765641e-001
3.139595e+003,-1.779150e-001
3.145381e+003,-1.788943e-001
3.151167e+003,-1.789541e-001
3.156952e+003,-1.805347e-001
3.162738e+003,-1.817714e-001
3.168523e+003,-1.835410e-001
3.174309e+003,-1.843723e-001
3.180094e+003,-1.849195e-001
3.185880e+003,-1.870009e-001
3.191665e+003,-1.875850e-001
3.197450e+003,-1.889760e-001
3.203236e+003,-1.895586e-001
3.209021e+003,-1.898959e-001
3.214807e+003,-1.897440e-001
3.220593e+003,-1.906582e-001
3.226378e+003,-1.927404e-001
3.232164e+003,-1.936381e-001
3.237949e+003,-1.933358e-001
3.243734e+003,-1.947907e-001
3.249520e+003,-1.966093e-001
3.255305e+003,-1.977953e-001
3.261091e+003,-1.987976e-001
3.266876e+003,-1.988763e-001
3.272662e+003,-2.006847e-001
3.278448e+003,-2.008666e-001
3.284233e+003,-2.014192e-001
3.290019e+003,-2.024038e-001
3.295804e+003,-2.029921e-001
3.301589e+003,-2.040544e-001
3.307375e+003,-2.054307e-001
3.313160e+003,-2.048738e-001
3.318946e+003,-2.062638e-001
3.324731e+003,-2.076351e-001
3.330517e+003,-2.074124e-001
3.336302e+003,-2.080987e-001
3.342088e+003,-2.091907e-001
3.347873e+003,-2.098808e-001
3.353659e+003,-2.111125e-001
3.359444e+003,-2.104090e-001
3.365230e+003,-2.107891e-001
3.371015e+003,-2.125026e-001
3.376801e+003,-2.139183e-001
3.382586e+003,-2.135310e-001
3.388372e+003,-2.136373e-001
3.394157e+003,-2.151643e-001
3.399943e+003,-2.136517e-001
3.405728e+003,-2.147815e-001
3.411514e+003,-2.149402e-001
3.417299e+003,-2.154791e-001
3.423085e+003,-2.156378e-001
3.428870e+003,-2.155513e-001
3.434656e+003,-2.161777e-001
3.440441e+003,-2.149215e-001
3.446227e+003,-2.161966e-001
3.452012e+003,-2.150703e-001
3.457798e+003,-2.158267e-001
3.463583e+003,-2.148204e-001
3.469369e+003,-2.151901e-001
3.475154e+003,-2.154071e-001
3.480940e+003,-2.146373e-001
3.486725e+003,-2.156707e-001
3.492511e+003,-2.165137e-001
3.498296e+003,-2.172940e-001
3.504082e+003,-2.189086e-001
3.509867e+003,-2.180686e-001
3.515653e+003,-2.169538e-001
3.521438e+003,-2.140281e-001
3.527224e+003,-2.143699e-001
3.533009e+003,-2.173869e-001
3.538795e+003,-2.197373e-001
3.544580e+003,-2.211560e-001
3.550366e+003,-2.243197e-001
3.556151e+003,-2.202175e-001
3.561937e+003,-2.123513e-001
3.567722e+003,-2.064813e-001
3.573508e+003,-2.028206e-001
3.579293e+003,-2.214541e-001
3.585079e+003,-2.289581e-001
3.590864e+003,-2.255493e-001
3.596650e+003,-2.164511e-001
3.602435e+003,-2.269268e-001
3.608221e+003,-2.342610e-001
3.614006e+003,-2.359608e-001
3.619792e+003,-2.363337e-001
3.625577e+003,-2.380877e-001
3.631363e+003,-2.369030e-001
3.637148e+003,-2.386586e-001
3.642934e+003,-2.400145e-001
3.648719e+003,-2.424439e-001
3.654505e+003,-2.429989e-001
3.660290e+003,-2.413855e-001
3.666076e+003,-2.436868e-001
3.671861e+003,-2.394675e-001
3.677647e+003,-2.402701e-001
3.683432e+003,-2.426919e-001
3.689218e+003,-2.429847e-001
3.695003e+003,-2.432579e-001
3.700789e+003,-2.450262e-001
3.706574e+003,-2.438872e-001
3.712360e+003,-2.425832e-001
3.718145e+003,-2.437003e-001
3.723931e+003,-2.426494e-001
3.729716e+003,-2.439548e-001
3.735502e+003,-2.471995e-001
3.741287e+003,-2.452457e-001
3.747073e+003,-2.454206e-001
3.752858e+003,-2.413168e-001
3.758644e+003,-2.470461e-001
3.764429e+003,-2.470555e-001
3.770215e+003,-2.470237e-001
3.776000e+003,-2.464455e-001
3.781786e+003,-2.460867e-001
3.787571e+003,-2.457169e-001
3.793356e+003,-2.482810e-001
3.799142e+003,-2.490511e-001
3.804927e+003,-2.496077e-001
3.810713e+003,-2.494808e-001
3.816499e+003,-2.482902e-001
3.822284e+003,-2.462541e-001
3.828070e+003,-2.492725e-001
3.833855e+003,-2.490828e-001
3.839641e+003,-2.466102e-001
3.845426e+003,-2.470870e-001
3.851211e+003,-2.545893e-001
3.856997e+003,-2.488464e-001
3.862782e+003,-2.525395e-001
3.868568e+003,-2.512356e-001
3.874354e+003,-2.495559e-001
3.880139e+003,-2.525718e-001
3.885925e+003,-2.491477e-001
3.891710e+003,-2.508708e-001
3.897495e+003,-2.520511e-001
3.903281e+003,-2.506644e-001
3.909066e+003,-2.518342e-001
3.914852e+003,-2.523817e-001
3.920637e+003,-2.517395e-001
3.926423e+003,-2.514263e-001
3.932208e+003,-2.513448e-001
3.937994e+003,-2.532973e-001
3.943780e+003,-2.536104e-001
3.949565e+003,-2.521686e-001
3.955350e+003,-2.538201e-001
3.961136e+003,-2.538520e-001
3.966921e+003,-2.542791e-001
3.972707e+003,-2.539780e-001
3.978492e+003,-2.544207e-001
3.984278e+003,-2.542070e-001
3.990063e+003,-2.547731e-001
3.995849e+003,-2.554808e-001
4.001634e+003,-2.548631e-001
4.007420e+003,-2.545919e-001
4.013205e+003,-2.566272e-001
4.018991e+003,-2.540355e-001
4.024776e+003,-2.560260e-001
4.030562e+003,-2.550152e-001
4.036347e+003,-2.572692e-001
4.042133e+003,-2.566752e-001
4.047918e+003,-2.570062e-001
4.053704e+003,-2.575010e-001
4.059489e+003,-2.573455e-001
4.065275e+003,-2.578769e-001
4.071060e+003,-2.566137e-001
4.076846e+003,-2.576557e-001
4.082631e+003,-2.565423e-001
4.088417e+003,-2.586550e-001
4.094202e+003,-2.573557e-001
4.099988e+003,-2.575501e-001
4.105773e+003,-2.590137e-001
4.111559e+003,-2.578578e-001
4.117344e+003,-2.578240e-001
4.123130e+003,-2.583302e-001
4.128916e+003,-2.581491e-001
4.134701e+003,-2.577318e-001
4.140486e+003,-2.590885e-001
4.146272e+003,-2.597830e-001
4.152057e+003,-2.577446e-001
4.157843e+003,-2.590874e-001
4.163628e+003,-2.597277e-001
4.169414e+003,-2.599377e-001
4.175199e+003,-2.593489e-001
4.180985e+003,-2.592487e-001
4.186770e+003,-2.585837e-001
4.192556e+003,-2.599952e-001
4.198341e+003,-2.598707e-001
4.204127e+003,-2.604374e-001
4.209912e+003,-2.596641e-001
4.215698e+003,-2.618670e-001
4.221483e+003,-2.598997e-001
4.227269e+003,-2.615644e-001
4.233054e+003,-2.608682e-001
4.238840e+003,-2.600675e-001
4.244625e+003,-2.602363e-001
4.250411e+003,-2.606032e-001
4.256196e+003,-2.608728e-001
4.261982e+003,-2.612211e-001
4.267767e+003,-2.610438e-001
4.273553e+003,-2.595464e-001
4.279338e+003,-2.629011e-001
4.285124e+003,-2.610761e-001
4.290909e+003,-2.603851e-001
4.296695e+003,-2.613838e-001
4.302480e+003,-2.606806e-001
4.308266e+003,-2.608998e-001
4.314051e+003,-2.610043e-001
4.319836e+003,-2.616064e-001
4.325622e+003,-2.610792e-001
4.331408e+003,-2.608989e-001
4.337193e+003,-2.622880e-001
4.342979e+003,-2.605339e-001
4.348764e+003,-2.619114e-001
4.354550e+003,-2.615756e-001
4.360335e+003,-2.618988e-001
4.366121e+003,-2.618187e-001
4.371906e+003,-2.607994e-001
4.377691e+003,-2.607819e-001
4.383477e+003,-2.614362e-001
4.389263e+003,-2.622914e-001
4.395048e+003,-2.603382e-001
4.400833e+003,-2.613379e-001
4.406619e+003,-2.610641e-001
4.412405e+003,-2.617638e-001
4.418190e+003,-2.620041e-001
4.423976e+003,-2.616686e-001
4.429761e+003,-2.621679e-001
4.435546e+003,-2.617673e-001
4.441332e+003,-2.608244e-001
4.447118e+003,-2.627994e-001
4.452903e+003,-2.622779e-001
4.458688e+003,-2.623318e-001
4.464474e+003,-2.620503e-001
4.470260e+003,-2.641816e-001
4.476045e+003,-2.615744e-001
4.481831e+003,-2.620121e-001
4.487616e+003,-2.622913e-001
4.493401e+003,-2.636867e-001
4.499187e+003,-2.626282e-001
4.504973e+003,-2.607816e-001
4.510758e+003,-2.620446e-001
4.516543e+003,-2.620133e-001
4.522329e+003,-2.627815e-001
4.528114e+003,-2.623878e-001
4.533900e+003,-2.621691e-001
4.539686e+003,-2.626022e-001
4.545471e+003,-2.614501e-001
4.551256e+003,-2.622981e-001
4.557042e+003,-2.617323e-001
4.562828e+003,-2.625712e-001
4.568613e+003,-2.627137e-001
4.574398e+003,-2.615341e-001
4.580184e+003,-2.610428e-001
4.585969e+003,-2.631553e-001
4.591755e+003,-2.632123e-001
4.597541e+003,-2.621470e-001
4.603326e+003,-2.623575e-001
4.609111e+003,-2.625972e-001
4.614897e+003,-2.628462e-001
4.620683e+003,-2.622494e-001
4.626468e+003,-2.620813e-001
4.632253e+003,-2.613034e-001
4.638039e+003,-2.621852e-001
4.643824e+003,-2.620792e-001
4.649610e+003,-2.626435e-001
4.655396e+003,-2.622829e-001
4.661181e+003,-2.628398e-001
4.666966e+003,-2.627215e-001
4.672752e+003,-2.621715e-001
4.678538e+003,-2.618239e-001
4.684323e+003,-2.615614e-001
4.690108e+003,-2.620443e-001
4.695894e+003,-2.631200e-001
4.701679e+003,-2.627288e-001
4.707465e+003,-2.630572e-001
4.713250e+003,-2.626209e-001
4.719036e+003,-2.634886e-001
4.724821e+003,-2.647217e-001
4.730607e+003,-2.652275e-001
4.736392e+003,-2.640797e-001
4.742178e+003,-2.643040e-001
4.747963e+003,-2.629411e-001
4.753749e+003,-2.632070e-001
4.759534e+003,-2.630342e-001
4.765320e+003,-2.618993e-001
4.771105e+003,-2.628737e-001
4.776891e+003,-2.634841e-001
4.782676e+003,-2.632946e-001
4.788462e+003,-2.624865e-001
4.794247e+003,-2.640229e-001
4.800033e+003,-2.640587e-001
4.805818e+003,-2.628752e-001
4.811604e+003,-2.643133e-001
4.817389e+003,-2.615895e-001
4.823175e+003,-2.646946e-001
4.828960e+003,-2.629775e-001
4.834746e+003,-2.647840e-001
4.840531e+003,-2.656037e-001
4.846317e+003,-2.632967e-001
4.852102e+003,-2.634215e-001
4.857888e+003,-2.629108e-001
4.863673e+003,-2.628179e-001
4.869458e+003,-2.635202e-001
4.875244e+003,-2.618107e-001
4.881030e+003,-2.631145e-001
4.886815e+003,-2.626247e-001
4.892601e+003,-2.650412e-001
4.898386e+003,-2.635262e-001
4.904172e+003,-2.622803e-001
4.909957e+003,-2.625344e-001
4.915743e+003,-2.631336e-001
4.921528e+003,-2.636567e-001
4.927313e+003,-2.641999e-001
4.933099e+003,-2.627078e-001
4.938885e+003,-2.643278e-001
4.944670e+003,-2.644226e-001
4.950456e+003,-2.631648e-001
4.956241e+003,-2.640696e-001
4.962027e+003,-2.613962e-001
4.967812e+003,-2.622881e-001
4.973598e+003,-2.630641e-001
4.979383e+003,-2.629988e-001
4.985168e+003,-2.627661e-001
4.990954e+003,-2.639791e-001
4.996740e+003,-2.632255e-001
5.002525e+003,-2.631218e-001
5.008311e+003,-2.625374e-001
5.014096e+003,-2.642202e-001
5.019882e+003,-2.652021e-001
5.025667e+003,-2.639933e-001
5.031453e+003,-2.624874e-001
5.037238e+003,-2.646137e-001
5.043023e+003,-2.641638e-001
5.048809e+003,-2.631940e-001
5.054595e+003,-2.640392e-001
5.060380e+003,-2.613322e-001
5.066166e+003,-2.627903e-001
5.071951e+003,-2.667132e-001
5.077736e+003,-2.649618e-001
5.083522e+003,-2.643130e-001
5.089308e+003,-2.637984e-001
5.095093e+003,-2.616493e-001
5.100878e+003,-2.626209e-001
5.106664e+003,-2.640508e-001
5.112450e+003,-2.642793e-001
5.118235e+003,-2.626169e-001
5.124021e+003,-2.640526e-001
5.129806e+003,-2.641773e-001
5.135591e+003,-2.647185e-001
5.141377e+003,-2.632155e-001
5.147163e+003,-2.636836e-001
5.152948e+003,-2.638273e-001
5.158733e+003,-2.600242e-001
5.164519e+003,-2.644776e-001
5.170305e+003,-2.657180e-001
5.176090e+003,-2.643445e-001
5.181875e+003,-2.638051e-001
5.187661e+003,-2.624032e-001
5.193446e+003,-2.630218e-001
5.199232e+003,-2.622119e-001
5.205018e+003,-2.632288e-001
5.210803e+003,-2.607116e-001
5.216588e+003,-2.596664e-001
5.222374e+003,-2.635871e-001
5.228160e+003,-2.613294e-001
5.233945e+003,-2.624601e-001
5.239730e+003,-2.615737e-001
5.245516e+003,-2.601322e-001
5.251301e+003,-2.598228e-001
5.257087e+003,-2.641586e-001
5.262873e+003,-2.607441e-001
5.268658e+003,-2.616290e-001
5.274443e+003,-2.638646e-001
5.280229e+003,-2.632166e-001
5.286014e+003,-2.618564e-001
5.291800e+003,-2.635392e-001
5.297585e+003,-2.607238e-001
5.303371e+003,-2.616947e-001
5.309156e+003,-2.635469e-001
5.314942e+003,-2.615746e-001
5.320728e+003,-2.623245e-001
5.326513e+003,-2.644084e-001
5.332298e+003,-2.654743e-001
5.338084e+003,-2.574539e-001
5.343869e+003,-2.612873e-001
5.349655e+003,-2.616931e-001
5.355440e+003,-2.623306e-001
5.361226e+003,-2.625974e-001
5.367011e+003,-2.596996e-001
5.372797e+003,-2.605465e-001
5.378583e+003,-2.610033e-001
5.384368e+003,-2.642777e-001
5.390153e+003,-2.627253e-001
5.395939e+003,-2.601358e-001
5.401724e+003,-2.637127e-001
5.407510e+003,-2.609316e-001
5.413295e+003,-2.575391e-001
5.419081e+003,-2.597367e-001
5.424866e+003,-2.637546e-001
5.430652e+003,-2.605531e-001
5.436438e+003,-2.588679e-001
5.442223e+003,-2.617053e-001
5.448008e+003,-2.591385e-001
5.453794e+003,-2.582636e-001
5.459579e+003,-2.621165e-001
5.465365e+003,-2.590259e-001
5.471150e+003,-2.625779e-001
5.476936e+003,-2.591758e-001
5.482721e+003,-2.597510e-001
5.488507e+003,-2.608979e-001
5.494292e+003,-2.584910e-001
5.500078e+003,-2.579174e-001
5.505863e+003,-2.610519e-001
5.511649e+003,-2.621183e-001
5.517434e+003,-2.578683e-001
5.523220e+003,-2.580355e-001
5.529005e+003,-2.624134e-001
5.534791e+003,-2.610446e-001
5.540576e+003,-2.607281e-001
5.546362e+003,-2.608005e-001
5.552147e+003,-2.600744e-001
5.557933e+003,-2.585859e-001
5.563718e+003,-2.611404e-001
5.569504e+003,-2.597602e-001
5.575289e+003,-2.584921e-001
5.581075e+003,-2.567533e-001
5.586860e+003,-2.595589e-001
5.592646e+003,-2.576468e-001
5.598431e+003,-2.578366e-001
5.604217e+003,-2.568542e-001
5.610002e+003,-2.620656e-001
5.615788e+003,-2.576292e-001
5.621573e+003,-2.588276e-001
5.627358e+003,-2.564269e-001
5.633144e+003,-2.570919e-001
5.638930e+003,-2.575085e-001
5.644715e+003,-2.573150e-001
5.650500e+003,-2.567816e-001
5.656286e+003,-2.545358e-001
5.662072e+003,-2.515942e-001
5.667857e+003,-2.560396e-001
5.673643e+003,-2.542971e-001
5.679428e+003,-2.557252e-001
5.685213e+003,-2.567487e-001
5.690999e+003,-2.522906e-001
5.696785e+003,-2.539729e-001
5.702570e+003,-2.533768e-001
5.708355e+003,-2.563479e-001
5.714141e+003,-2.532357e-001
5.719927e+003,-2.544943e-001
5.725712e+003,-2.512403e-001
5.731498e+003,-2.494336e-001
5.737283e+003,-2.526054e-001
5.743068e+003,-2.514991e-001
5.748854e+003,-2.505109e-001
5.754640e+003,-2.478004e-001
5.760425e+003,-2.503506e-001
5.766210e+003,-2.518700e-001
5.771996e+003,-2.516247e-001
5.777782e+003,-2.506245e-001
5.783567e+003,-2.490027e-001
5.789353e+003,-2.499840e-001
5.795138e+003,-2.502316e-001
5.800923e+003,-2.469552e-001
5.806709e+003,-2.471440e-001
5.812495e+003,-2.491279e-001
5.818280e+003,-2.476242e-001
5.824065e+003,-2.483744e-001
5.829851e+003,-2.513374e-001
5.835637e+003,-2.461029e-001
5.841422e+003,-2.476687e-001
5.847208e+003,-2.444503e-001
5.852993e+003,-2.442487e-001
5.858778e+003,-2.433688e-001
5.864564e+003,-2.415538e-001
5.870350e+003,-2.438464e-001
5.876135e+003,-2.394230e-001
5.881920e+003,-2.426995e-001
5.887706e+003,-2.383409e-001
5.893491e+003,-2.426521e-001
5.899277e+003,-2.418989e-001
5.905063e+003,-2.380463e-001
5.910848e+003,-2.371671e-001
5.916633e+003,-2.361445e-001
5.922419e+003,-2.380229e-001
5.928205e+003,-2.365259e-001
5.933990e+003,-2.340969e-001
5.939775e+003,-2.321381e-001
5.945561e+003,-2.344122e-001
5.951346e+003,-2.329959e-001
5.957132e+003,-2.333435e-001
5.962917e+003,-2.328174e-001
5.968703e+003,-2.297852e-001
5.974488e+003,-2.301226e-001
5.980274e+003,-2.296394e-001
5.986060e+003,-2.312254e-001
5.991845e+003,-2.271034e-001
5.997630e+003,-2.242170e-001
6.003416e+003,-2.250430e-001
6.009201e+003,-2.226335e-001
6.014987e+003,-2.228803e-001
6.020772e+003,-2.223300e-001
6.026558e+003,-2.236260e-001
6.032343e+003,-2.181914e-001
6.038129e+003,-2.201263e-001
6.043915e+003,-2.193178e-001
6.049700e+003,-2.197628e-001
6.055485e+003,-2.169142e-001
6.061271e+003,-2.168548e-001
6.067056e+003,-2.173278e-001
6.072842e+003,-2.103124e-001
6.078627e+003,-2.135501e-001
6.084413e+003,-2.029641e-001
6.090198e+003,-2.053281e-001
6.095984e+003,-2.053386e-001
6.101769e+003,-2.071961e-001
6.107555e+003,-2.098556e-001
6.113340e+003,-2.026332e-001
6.119126e+003,-2.032839e-001
6.124911e+003,-1.982343e-001
6.130697e+003,-1.962860e-001
6.136482e+003,-1.981425e-001
6.142268e+003,-1.885024e-001
6.148053e+003,-1.908899e-001
6.153839e+003,-1.902693e-001
6.159624e+003,-1.943189e-001
6.165410e+003,-1.866993e-001
6.171195e+003,-1.795634e-001
6.176981e+003,-1.864149e-001
6.182766e+003,-1.800119e-001
6.188552e+003,-1.812054e-001
6.194337e+003,-1.773894e-001
6.200123e+003,-1.755266e-001
6.205908e+003,-1.733876e-001
6.211694e+003,-1.724996e-001
6.217479e+003,-1.725634e-001
6.223265e+003,-1.677296e-001
6.229050e+003,-1.698457e-001
6.234835e+003,-1.628623e-001
6.240621e+003,-1.617807e-001
6.246407e+003,-1.595670e-001
6.252192e+003,-1.578903e-001
6.257978e+003,-1.566405e-001
6.263763e+003,-1.574027e-001
6.269549e+003,-1.474973e-001
6.275334e+003,-1.513235e-001
6.281120e+003,-1.439853e-001
6.286905e+003,-1.471574e-001
6.292690e+003,-1.398375e-001
6.298476e+003,-1.396417e-001
6.304262e+003,-1.356727e-001
6.310047e+003,-1.353925e-001
6.315833e+003,-1.284734e-001
6.321618e+003,-1.221247e-001
6.327404e+003,-1.211488e-001
6.333189e+003,-1.233147e-001
6.338975e+003,-1.181680e-001
6.344760e+003,-1.204808e-001
6.350545e+003,-1.176017e-001
6.356331e+003,-1.080374e-001
6.362117e+003,-1.149720e-001
6.367902e+003,-1.023372e-001
6.373688e+003,-1.094940e-001
6.379473e+003,-1.046585e-001
6.385259e+003,-9.712591e-002
6.391044e+003,-9.450862e-002
6.396830e+003,-9.699629e-002
6.402615e+003,-8.630668e-002
6.408400e+003,-8.388687e-002
6.414186e+003,-8.235869e-002
6.419972e+003,-7.770253e-002
6.425757e+003,-7.831775e-002
6.431542e+003,-7.381316e-002
6.437328e+003,-6.352606e-002
6.443113e+003,-6.496561e-002
6.448899e+003,-5.892351e-002
6.454685e+003,-5.236492e-002
6.460470e+003,-4.824288e-002
6.466255e+003,-4.713500e-002
6.472041e+003,-4.648848e-002
6.477827e+003,-4.113139e-002
6.483612e+003,-3.898916e-002
6.489397e+003,-2.894820e-002
6.495183e+003,-3.263589e-002
6.500968e+003,-1.890447e-002
6.506754e+003,-2.160611e-002
6.512540e+003,-1.266624e-002
6.518325e+003,-1.301074e-002
6.524110e+003,-1.028984e-003
6.529896e+003,-1.208604e-003
6.535682e+003,9.817615e-003
6.541467e+003,1.432933e-002
6.547252e+003,3.963968e-003
6.553038e+003,7.567258e-003
6.558823e+003,2.257729e-002
6.564609e+003,2.895981e-002
6.570395e+003,3.266690e-002
6.576180e+003,3.719925e-002
6.581965e+003,3.237061e-002
6.587751e+003,4.352155e-002
6.593537e+003,4.871058e-002
6.599322e+003,6.264935e-002
6.605107e+003,5.534868e-002
6.610893e+003,5.750316e-002
6.616678e+003,6.895195e-002
6.622464e+003,6.452304e-002
6.628250e+003,7.803778e-002
6.634035e+003,8.238899e-002
6.639820e+003,9.409279e-002
6.645606e+003,1.020140e-001
6.651391e+003,9.808508e-002
6.657177e+003,1.089237e-001
6.662962e+003,1.080591e-001
6.668748e+003,1.173773e-001
6.674533e+003,1.187613e-001
6.680319e+003,1.373574e-001
6.686104e+003,1.272651e-001
6.691890e+003,1.356007e-001
6.697675e+003,1.436447e-001
6.703461e+003,1.555475e-001
6.709246e+003,1.580150e-001
6.715032e+003,1.704390e-001
6.720817e+003,1.755663e-001
6.726603e+003,1.708462e-001
6.732388e+003,1.883391e-001
6.738174e+003,1.950860e-001
6.743959e+003,2.006468e-001
6.749745e+003,2.195574e-001
6.755530e+003,2.092738e-001
6.761316e+003,2.161856e-001
6.767101e+003,2.458715e-001
6.772887e+003,2.392070e-001
6.778672e+003,2.365406e-001
6.784458e+003,2.499247e-001
6.790243e+003,2.322967e-001
6.796029e+003,2.701575e-001
6.801814e+003,2.559634e-001
6.807600e+003,2.760243e-001
6.813385e+003,2.723070e-001
6.819171e+003,2.952784e-001
6.824956e+003,3.127401e-001
6.830742e+003,3.049860e-001
6.836527e+003,3.027052e-001
6.842313e+003,3.196449e-001
6.848098e+003,3.328081e-001
6.853884e+003,3.522423e-001
6.859669e+003,3.277486e-001
6.865455e+003,3.581567e-001
6.871240e+003,3.636309e-001
6.877026e+003,3.709589e-001
6.882811e+003,3.702927e-001
6.888597e+003,3.962205e-001
6.894382e+003,3.796276e-001
6.900167e+003,3.637116e-001
6.905953e+003,4.098642e-001
6.911739e+003,4.142873e-001
6.917524e+003,4.233917e-001
6.923310e+003,4.225278e-001
6.929095e+003,4.768295e-001
6.934881e+003,4.624006e-001
6.940666e+003,4.383439e-001
6.946452e+003,4.646094e-001
6.952237e+003,4.931463e-001
6.958022e+003,4.895937e-001
6.963808e+003,5.163257e-001
6.969594e+003,4.972381e-001
6.975379e+003,5.363487e-001
6.981165e+003,5.110229e-001
6.986950e+003,5.026259e-001
6.992735e+003,5.661146e-001
6.998521e+003,5.440043e-001
7.004307e+003,4.875510e-001
7.010092e+003,5.560399e-001
7.015877e+003,5.622187e-001
7.021663e+003,5.384846e-001
7.027449e+003,5.495999e-001
7.033234e+003,5.891321e-001
7.039020e+003,5.694321e-001
7.044805e+003,6.437127e-001
7.050590e+003,6.444033e-001
7.056376e+003,6.683763e-001
7.062162e+003,6.344376e-001
7.067947e+003,6.633952e-001
7.073732e+003,6.407055e-001
7.079518e+003,6.433683e-001
7.085304e+003,6.574794e-001
7.091089e+003,6.799007e-001
7.096875e+003,7.095655e-001
7.102660e+003,7.228730e-001
7.108445e+003,7.372409e-001
7.114231e+003,6.954162e-001
7.120017e+003,7.472563e-001
7.125802e+003,7.638017e-001
7.131587e+003,6.938239e-001
7.137373e+003,7.235937e-001
7.143159e+003,6.985366e-001
7.148944e+003,7.450248e-001
7.154729e+003,7.550194e-001
7.160515e+003,7.776722e-001
7.166300e+003,8.227749e-001
7.172086e+003,8.059276e-001
7.177872e+003,8.018140e-001
7.183657e+003,7.276703e-001
7.189442e+003,7.674276e-001
7.195228e+003,7.996411e-001
7.201013e+003,8.500289e-001
7.206799e+003,7.600813e-001
7.212584e+003,7.684191e-001
7.218370e+003,8.423176e-001
7.224155e+003,9.458255e-001
7.229941e+003,8.874972e-001
7.235727e+003,7.916411e-001
7.241512e+003,1.006985e+000
7.247297e+003,8.805268e-001
7.253083e+003,9.129648e-001
7.258868e+003,9.235870e-001
7.264654e+003,9.351434e-001
7.270439e+003,1.045449e+000
7.276225e+003,1.119335e+000
7.282010e+003,9.524787e-001
7.287796e+003,9.093306e-001
7.293582e+003,9.613054e-001
7.299367e+003,1.046730e+000
7.305152e+003,1.030672e+000
7.310938e+003,1.077554e+000
7.316723e+003,1.241370e+000
7.322509e+003,9.818242e-001
7.328294e+003,1.102509e+000
7.334080e+003,9.215667e-001
7.339865e+003,9.532825e-001
7.345651e+003,1.262683e+000
7.351437e+003,1.039157e+000
7.357222e+003,1.022231e+000
7.363007e+003,9.608840e-001
7.368793e+003,1.325337e+000
7.374578e+003,1.049719e+000
7.380364e+003,9.269502e-001
7.386149e+003,1.091733e+000
7.391935e+003,1.113942e+000
7.397720e+003,1.185490e+000
7.403506e+003,1.003207e+000
7.409291e+003,8.977805e-001
7.415077e+003,1.234128e+000
7.420862e+003,1.070320e+000
7.426648e+003,1.075768e+000
7.432433e+003,1.255985e+000
7.438219e+003,1.202244e+000
7.444004e+003,1.177895e+000
7.449790e+003,1.046085e+000
7.455575e+003,1.057693e+000
7.461361e+003,1.364416e+000
7.467146e+003,1.222874e+000
7.472932e+003,1.106626e+000
7.478717e+003,1.266847e+000
7.484503e+003,1.398955e+000
7.490288e+003,1.294252e+000
7.496074e+003,1.156168e+000
7.501859e+003,1.489863e+000
7.507645e+003,1.271065e+000
7.513430e+003,1.075256e+000
7.519216e+003,1.254754e+000
7.525001e+003,1.203022e+000
7.530787e+003,1.110317e+000
7.536572e+003,1.512977e+000
7.542357e+003,1.309275e+000
7.548143e+003,8.874843e-001
7.553929e+003,1.470101e+000
7.559714e+003,1.211770e+000
7.565500e+003,1.041556e+000
7.571285e+003,1.072065e+000
7.577071e+003,8.902531e-001
7.582856e+003,1.166177e+000
7.588642e+003,1.131194e+000
7.594427e+003,1.228991e+000
7.600212e+003,6.000000e+000
7.605998e+003,1.066914e+000
7.611784e+003,1.409449e+000
7.617569e+003,1.188070e+000
7.623354e+003,1.275755e+000
7.629140e+003,1.159858e+000
7.634926e+003,1.139733e+000
7.640711e+003,1.376144e+000
7.646497e+003,1.020610e+000
7.652282e+003,1.360211e+000
7.658067e+003,1.040572e+000
7.663853e+003,1.089388e+000
7.669639e+003,1.324576e+000
7.675424e+003,1.531883e+000
7.681209e+003,1.120859e+000
7.686995e+003,1.084284e+000
7.692781e+003,1.149263e+000
7.698566e+003,1.382829e+000
7.704352e+003,1.279184e+000
7.710137e+003,1.131435e+000
7.715922e+003,1.468859e+000
7.721708e+003,1.241589e+000
7.727494e+003,1.036860e+000
7.733279e+003,1.574872e+000
7.739064e+003,1.016358e+000
7.744850e+003,1.499903e+000
7.750635e+003,1.059825e+000
7.756421e+003,1.296836e+000
7.762207e+003,1.246154e+000
7.767992e+003,1.466263e+000
7.773777e+003,1.011373e+000
7.779563e+003,1.538624e+000
7.785349e+003,1.266586e+000
7.791134e+003,9.896097e-001
7.796919e+003,9.658340e-001
7.802705e+003,6.000000e+000
7.808490e+003,1.785737e+000
7.814276e+003,1.376734e+000
7.820062e+003,1.473758e+000
7.825847e+003,9.372740e-001
7.831632e+003,6.000000e+000
7.837418e+003,1.276293e+000
7.843204e+003,9.391440e-001
7.848989e+003,1.059221e+000
7.854774e+003,9.991689e-001
7.860560e+003,1.190884e+000
7.866345e+003,1.638133e+000
7.872131e+003,1.195844e+000
7.877917e+003,1.180902e+000
7.883702e+003,1.331538e+000
7.889487e+003,1.335389e+000
7.895273e+003,2.114900e+000
7.901059e+003,8.548515e-001
7.906844e+003,8.835916e-001
7.912629e+003,1.541536e+000
7.918415e+003,1.927352e+000
7.924200e+003,9.107536e-001
7.929986e+003,1.214337e+000
7.935771e+003,1.120343e+000
7.941557e+003,9.488466e-001
7.947342e+003,7.731275e-001
7.953128e+003,1.207711e+000
7.958914e+003,1.169074e+000
7.964699e+003,7.981648e-001
7.970484e+003,9.328911e-001
7.976270e+003,1.027421e+000
7.982055e+003,8.132614e-001
7.987841e+003,1.265095e+000
7.993626e+003,9.947367e-001
7.999412e+003,2.176574e+000
8.005197e+003,1.299207e+000
8.010983e+003,1.227490e+000
8.016768e+003,9.665315e-001
8.022554e+003,1.509961e+000
8.028339e+003,1.573834e+000
8.034125e+003,7.718974e-001
8.039910e+003,1.811879e+000
8.045696e+003,1.043831e+000
8.051481e+003,6.000000e+000
8.057267e+003,8.318198e-001
8.063052e+003,8.329107e-001
8.068838e+003,1.637080e+000
8.074623e+003,1.087550e+000
8.080409e+003,6.000000e+000
8.086194e+003,1.183941e+000
8.091979e+003,8.581102e-001
8.097765e+003,8.243786e-001
8.103551e+003,7.535542e-001
8.109336e+003,8.423903e-001
8.115122e+003,2.245878e+000
8.120907e+003,1.755963e+000
8.126693e+003,1.365723e+000
8.132478e+003,6.302564e-001
8.138264e+003,1.115384e+000
8.144049e+003,6.000000e+000
8.149834e+003,1.322204e+000
8.155620e+003,1.481982e+000
8.161406e+003,6.000000e+000
8.167191e+003,9.089062e-001
8.172977e+003,5.420884e-001
8.178762e+003,6.000000e+000
8.184548e+003,2.166873e+000
8.190333e+003,1.084954e+000
8.196118e+003,8.354192e-001
8.201904e+003,1.170622e+000
8.207689e+003,6.757772e-001
8.213476e+003,8.587182e-001
8.219261e+003,6.930534e-001
8.225046e+003,7.992842e-001
8.230832e+003,8.203018e-001
8.236617e+003,6.000000e+000
8.242402e+003,7.937866e-001
8.248188e+003,1.087775e+000
8.253974e+003,9.634457e-001
8.259759e+003,6.000000e+000
8.265545e+003,2.552436e+000
8.271330e+003,5.388640e-001
8.277115e+003,9.186952e-001
8.282901e+003,1.261822e+000
8.288687e+003,4.548373e-001
8.294472e+003,6.182604e-001
8.300258e+003,1.839137e+000
8.306043e+003,8.722309e-001
8.311828e+003,6.000000e+000
8.317614e+003,1.141604e+000
8.323399e+003,1.858687e+000
8.329185e+003,6.000000e+000
8.334971e+003,6.000000e+000
8.340756e+003,9.169316e-001
8.346542e+003,6.000000e+000
8.352327e+003,1.394683e+000
8.358112e+003,7.509310e-001
8.363898e+003,2.635041e-001
8.369684e+003,6.000000e+000
8.375469e+003,2.953138e-001
8.381255e+003,4.356651e-001
8.387040e+003,9.349878e-001
8.392825e+003,4.939779e-001
8.398611e+003,5.876972e-001
8.404396e+003,6.000000e+000
8.410182e+003,2.327272e-001
8.415968e+003,1.687081e+000
8.421753e+003,6.000000e+000
8.427538e+003,3.673343e-001
8.433324e+003,5.728760e-001
8.439109e+003,1.751402e-001
8.444895e+003,6.000000e+000
8.450681e+003,1.114499e+000
8.456466e+003,5.969520e-001
8.462251e+003,1.355242e+000
8.468037e+003,1.171029e+000
8.473822e+003,6.403178e-001
8.479608e+003,8.407554e-001
8.485394e+003,6.526003e-001
8.491179e+003,5.893385e-001
8.496965e+003,1.177977e+000
8.500821e+003,3.708366e-001