File: olivine/FTIR/SC1-2-800C-7hr-c02-copper.CSV
4.493401e+002,9.314233e-002
4.551256e+002,5.720608e-001
4.609111e+002,1.634206e-001
4.666966e+002,7.625363e-001
4.724821e+002,6.000000e+000
4.782676e+002,4.088406e-001
4.840531e+002,8.763528e-001
4.898386e+002,1.840671e-001
4.956241e+002,1.390232e+000
5.014096e+002,5.839995e-001
5.071951e+002,6.080790e-001
5.129806e+002,7.679795e-001
5.187661e+002,1.159981e+000
5.245516e+002,5.841853e-001
5.303371e+002,5.402598e-001
5.361226e+002,6.277778e-001
5.419081e+002,6.000000e+000
5.476935e+002,7.598908e-001
5.534791e+002,9.429066e-001
5.592646e+002,1.819422e+000
5.650500e+002,1.207091e+000
5.708356e+002,1.386902e+000
5.766210e+002,1.345380e+000
5.824066e+002,1.400654e+000
5.881920e+002,1.625871e+000
5.939775e+002,1.681044e+000
5.997631e+002,1.947314e+000
6.055485e+002,1.695674e+000
6.113340e+002,2.098312e+000
6.171195e+002,1.798834e+000
6.229050e+002,1.752341e+000
6.286905e+002,1.939473e+000
6.344760e+002,1.949587e+000
6.402615e+002,1.889007e+000
6.460470e+002,1.905145e+000
6.518325e+002,1.899982e+000
6.576180e+002,1.892390e+000
6.634035e+002,1.860597e+000
6.691890e+002,1.895805e+000
6.749745e+002,1.803376e+000
6.807599e+002,1.993998e+000
6.865455e+002,2.064311e+000
6.923309e+002,1.959384e+000
6.981165e+002,2.035365e+000
7.039020e+002,2.056814e+000
7.096874e+002,1.974826e+000
7.154730e+002,1.944823e+000
7.212584e+002,2.198515e+000
7.270439e+002,1.947928e+000
7.328294e+002,2.024053e+000
7.386149e+002,1.906608e+000
7.444004e+002,1.955050e+000
7.501859e+002,1.960920e+000
7.559714e+002,1.942791e+000
7.617569e+002,1.903565e+000
7.675424e+002,1.990194e+000
7.733279e+002,2.018238e+000
7.791134e+002,1.990142e+000
7.848989e+002,1.909065e+000
7.906844e+002,1.935610e+000
7.964699e+002,2.005613e+000
8.022554e+002,2.004243e+000
8.080409e+002,1.993461e+000
8.138264e+002,2.053003e+000
8.196119e+002,1.962024e+000
8.253973e+002,2.059778e+000
8.311829e+002,2.026647e+000
8.369683e+002,2.007252e+000
8.427538e+002,1.951214e+000
8.485394e+002,1.971366e+000
8.543248e+002,2.054435e+000
8.601104e+002,2.025547e+000
8.658958e+002,1.946231e+000
8.716813e+002,2.087031e+000
8.774668e+002,2.007130e+000
8.832523e+002,1.954901e+000
8.890378e+002,2.012965e+000
8.948233e+002,2.108069e+000
9.006088e+002,2.082076e+000
9.063943e+002,2.055459e+000
9.121798e+002,2.072387e+000
9.179653e+002,2.042727e+000
9.237508e+002,2.008933e+000
9.295363e+002,2.092227e+000
9.353218e+002,2.076924e+000
9.411072e+002,2.051218e+000
9.468928e+002,2.067354e+000
9.526783e+002,2.077315e+000
9.584637e+002,2.042962e+000
9.642493e+002,2.084996e+000
9.700347e+002,2.081496e+000
9.758203e+002,2.028842e+000
9.816057e+002,2.046350e+000
9.873912e+002,2.090939e+000
9.931768e+002,2.121296e+000
9.989622e+002,2.061202e+000
1.004748e+003,2.204372e+000
1.010533e+003,2.043382e+000
1.016319e+003,2.113125e+000
1.022104e+003,2.125797e+000
1.027890e+003,2.077718e+000
1.033675e+003,2.177086e+000
1.039461e+003,2.074659e+000
1.045246e+003,2.117315e+000
1.051032e+003,2.068016e+000
1.056817e+003,2.071752e+000
1.062603e+003,2.100235e+000
1.068388e+003,2.104156e+000
1.074174e+003,2.058524e+000
1.079959e+003,2.149831e+000
1.085745e+003,2.148954e+000
1.091530e+003,2.070315e+000
1.097316e+003,2.221406e+000
1.103101e+003,2.147475e+000
1.108887e+003,2.158904e+000
1.114672e+003,2.097290e+000
1.120458e+003,2.137757e+000
1.126243e+003,2.225674e+000
1.132029e+003,2.126430e+000
1.137814e+003,2.151040e+000
1.143600e+003,2.195639e+000
1.149385e+003,2.140702e+000
1.155171e+003,2.209872e+000
1.160956e+003,2.127513e+000
1.166742e+003,2.152815e+000
1.172527e+003,2.226204e+000
1.178313e+003,2.149808e+000
1.184098e+003,2.247209e+000
1.189884e+003,2.131706e+000
1.195669e+003,2.121163e+000
1.201455e+003,2.082165e+000
1.207240e+003,2.182719e+000
1.213026e+003,2.142951e+000
1.218811e+003,2.136084e+000
1.224597e+003,2.214773e+000
1.230382e+003,2.156251e+000
1.236167e+003,2.178519e+000
1.241953e+003,2.168200e+000
1.247739e+003,2.174764e+000
1.253524e+003,2.170727e+000
1.259310e+003,2.077341e+000
1.265095e+003,2.138735e+000
1.270880e+003,2.172834e+000
1.276666e+003,2.186767e+000
1.282452e+003,2.115436e+000
1.288237e+003,2.172908e+000
1.294022e+003,2.111925e+000
1.299808e+003,2.169174e+000
1.305594e+003,2.170702e+000
1.311379e+003,2.161346e+000
1.317164e+003,2.110112e+000
1.322950e+003,2.187900e+000
1.328735e+003,2.164355e+000
1.334521e+003,2.212096e+000
1.340307e+003,2.105837e+000
1.346092e+003,2.143158e+000
1.351877e+003,2.147340e+000
1.357663e+003,2.175740e+000
1.363448e+003,2.161380e+000
1.369234e+003,2.122656e+000
1.375019e+003,2.198101e+000
1.380805e+003,2.210273e+000
1.386590e+003,2.146013e+000
1.392376e+003,2.186526e+000
1.398161e+003,2.142364e+000
1.403947e+003,2.196168e+000
1.409732e+003,2.177474e+000
1.415518e+003,2.165406e+000
1.421303e+003,2.106886e+000
1.427089e+003,2.142915e+000
1.432874e+003,2.203447e+000
1.438660e+003,2.108701e+000
1.444445e+003,2.112252e+000
1.450231e+003,2.139755e+000
1.456016e+003,2.094367e+000
1.461802e+003,2.167831e+000
1.467587e+003,2.125147e+000
1.473373e+003,2.068028e+000
1.479158e+003,2.208401e+000
1.484944e+003,2.059827e+000
1.490729e+003,1.996572e+000
1.496515e+003,2.134863e+000
1.502300e+003,2.107622e+000
1.508086e+003,2.043913e+000
1.513871e+003,2.071922e+000
1.519657e+003,2.151800e+000
1.525442e+003,2.015757e+000
1.531228e+003,2.104719e+000
1.537013e+003,2.060848e+000
1.542799e+003,2.007923e+000
1.548584e+003,2.067556e+000
1.554370e+003,2.043478e+000
1.560155e+003,2.033882e+000
1.565941e+003,2.154139e+000
1.571726e+003,2.110451e+000
1.577512e+003,2.148590e+000
1.583297e+003,2.132436e+000
1.589083e+003,2.269857e+000
1.594868e+003,2.128330e+000
1.600654e+003,2.211928e+000
1.606439e+003,2.133130e+000
1.612225e+003,2.159296e+000
1.618010e+003,2.113217e+000
1.623796e+003,2.153471e+000
1.629581e+003,2.182866e+000
1.635367e+003,2.013885e+000
1.641152e+003,2.171440e+000
1.646938e+003,2.038515e+000
1.652723e+003,2.134275e+000
1.658509e+003,2.210244e+000
1.664294e+003,2.191355e+000
1.670080e+003,2.128480e+000
1.675865e+003,2.109611e+000
1.681651e+003,2.068341e+000
1.687436e+003,2.190116e+000
1.693222e+003,2.111657e+000
1.699007e+003,2.140853e+000
1.704793e+003,2.248199e+000
1.710578e+003,2.251909e+000
1.716364e+003,2.038311e+000
1.722149e+003,2.205333e+000
1.727935e+003,2.199836e+000
1.733720e+003,2.150869e+000
1.739506e+003,2.220677e+000
1.745291e+003,2.232131e+000
1.751077e+003,2.099042e+000
1.756862e+003,2.237569e+000
1.762648e+003,2.279897e+000
1.768433e+003,2.245755e+000
1.774219e+003,2.243617e+000
1.780004e+003,2.228093e+000
1.785790e+003,2.172299e+000
1.791575e+003,2.228101e+000
1.797361e+003,2.138937e+000
1.803146e+003,2.200109e+000
1.808932e+003,2.196480e+000
1.814717e+003,2.243798e+000
1.820503e+003,2.235734e+000
1.826288e+003,2.208328e+000
1.832074e+003,2.287532e+000
1.837859e+003,2.235055e+000
1.843645e+003,2.260307e+000
1.849430e+003,2.271207e+000
1.855216e+003,2.250265e+000
1.861001e+003,2.299865e+000
1.866786e+003,2.224997e+000
1.872572e+003,2.197681e+000
1.878358e+003,2.244011e+000
1.884143e+003,2.307857e+000
1.889929e+003,2.169416e+000
1.895714e+003,2.226816e+000
1.901500e+003,2.219676e+000
1.907285e+003,2.254388e+000
1.913071e+003,2.273509e+000
1.918856e+003,2.292700e+000
1.924641e+003,2.236216e+000
1.930427e+003,2.270284e+000
1.936213e+003,2.247258e+000
1.941998e+003,2.279188e+000
1.947783e+003,2.326484e+000
1.953569e+003,2.271858e+000
1.959354e+003,2.228424e+000
1.965140e+003,2.279447e+000
1.970925e+003,2.269785e+000
1.976711e+003,2.310567e+000
1.982496e+003,2.194136e+000
1.988282e+003,2.226700e+000
1.994068e+003,2.252935e+000
1.999853e+003,2.190761e+000
2.005638e+003,2.241693e+000
2.011424e+003,2.160945e+000
2.017209e+003,2.209116e+000
2.022995e+003,2.229148e+000
2.028780e+003,2.271696e+000
2.034566e+003,2.226970e+000
2.040351e+003,2.235874e+000
2.046137e+003,2.166654e+000
2.051922e+003,2.196135e+000
2.057708e+003,2.053216e+000
2.063493e+003,1.927351e+000
2.069279e+003,1.780498e+000
2.075064e+003,1.653955e+000
2.080850e+003,1.575383e+000
2.086635e+003,1.487919e+000
2.092421e+003,1.434927e+000
2.098206e+003,1.381766e+000
2.103992e+003,1.354237e+000
2.109777e+003,1.315586e+000
2.115563e+003,1.283968e+000
2.121348e+003,1.263138e+000
2.127134e+003,1.239450e+000
2.132919e+003,1.216740e+000
2.138705e+003,1.185282e+000
2.144490e+003,1.172541e+000
2.150276e+003,1.146806e+000
2.156061e+003,1.134272e+000
2.161847e+003,1.119739e+000
2.167632e+003,1.094430e+000
2.173418e+003,1.082183e+000
2.179203e+003,1.058750e+000
2.184989e+003,1.041985e+000
2.190774e+003,1.029119e+000
2.196560e+003,1.009072e+000
2.202345e+003,9.965655e-001
2.208131e+003,9.779695e-001
2.213916e+003,9.586215e-001
2.219702e+003,9.448449e-001
2.225487e+003,9.292859e-001
2.231273e+003,9.170308e-001
2.237058e+003,9.009758e-001
2.242844e+003,8.853040e-001
2.248629e+003,8.782843e-001
2.254415e+003,8.600373e-001
2.260200e+003,8.487417e-001
2.265986e+003,8.377901e-001
2.271771e+003,8.271469e-001
2.277557e+003,8.153094e-001
2.283342e+003,8.036866e-001
2.289128e+003,7.885659e-001
2.294913e+003,7.836455e-001
2.300699e+003,7.695212e-001
2.306484e+003,7.605283e-001
2.312270e+003,7.558181e-001
2.318055e+003,7.388030e-001
2.323841e+003,7.373072e-001
2.329626e+003,7.217849e-001
2.335412e+003,7.164145e-001
2.341197e+003,7.035211e-001
2.346983e+003,6.953982e-001
2.352768e+003,6.914147e-001
2.358554e+003,6.895053e-001
2.364339e+003,6.766556e-001
2.370125e+003,6.625125e-001
2.375910e+003,6.457065e-001
2.381696e+003,6.349726e-001
2.387481e+003,6.224062e-001
2.393267e+003,6.129698e-001
2.399052e+003,6.052627e-001
2.404838e+003,5.984859e-001
2.410623e+003,5.890918e-001
2.416409e+003,5.817864e-001
2.422194e+003,5.751013e-001
2.427980e+003,5.687767e-001
2.433765e+003,5.618157e-001
2.439551e+003,5.556219e-001
2.445336e+003,5.475845e-001
2.451122e+003,5.422868e-001
2.456907e+003,5.366290e-001
2.462693e+003,5.331978e-001
2.468478e+003,5.287057e-001
2.474264e+003,5.295759e-001
2.480049e+003,5.270993e-001
2.485834e+003,5.290568e-001
2.491620e+003,5.251886e-001
2.497406e+003,5.162793e-001
2.503191e+003,5.073252e-001
2.508977e+003,4.943958e-001
2.514762e+003,4.835272e-001
2.520548e+003,4.757410e-001
2.526333e+003,4.677928e-001
2.532119e+003,4.609497e-001
2.537904e+003,4.535129e-001
2.543689e+003,4.499818e-001
2.549475e+003,4.437457e-001
2.555260e+003,4.405268e-001
2.561046e+003,4.361076e-001
2.566832e+003,4.301913e-001
2.572617e+003,4.251116e-001
2.578403e+003,4.217306e-001
2.584188e+003,4.162203e-001
2.589973e+003,4.102584e-001
2.595759e+003,4.040125e-001
2.601544e+003,4.001094e-001
2.607330e+003,3.957590e-001
2.613115e+003,3.904674e-001
2.618901e+003,3.882224e-001
2.624687e+003,3.835676e-001
2.630472e+003,3.804669e-001
2.636258e+003,3.759688e-001
2.642043e+003,3.734037e-001
2.647828e+003,3.688584e-001
2.653614e+003,3.641354e-001
2.659399e+003,3.598041e-001
2.665185e+003,3.546973e-001
2.670970e+003,3.498338e-001
2.676756e+003,3.428674e-001
2.682542e+003,3.364798e-001
2.688327e+003,3.299382e-001
2.694112e+003,3.231864e-001
2.699898e+003,3.168685e-001
2.705683e+003,3.097595e-001
2.711469e+003,3.047317e-001
2.717254e+003,2.983429e-001
2.723040e+003,2.935562e-001
2.728825e+003,2.883001e-001
2.734611e+003,2.832181e-001
2.740396e+003,2.800277e-001
2.746182e+003,2.772524e-001
2.751967e+003,2.746633e-001
2.757753e+003,2.699173e-001
2.763538e+003,2.679988e-001
2.769324e+003,2.651983e-001
2.775109e+003,2.637578e-001
2.780895e+003,2.614699e-001
2.786680e+003,2.606448e-001
2.792466e+003,2.566135e-001
2.798251e+003,2.557602e-001
2.804037e+003,2.548077e-001
2.809822e+003,2.517077e-001
2.815608e+003,2.495903e-001
2.821393e+003,2.475700e-001
2.827179e+003,2.458402e-001
2.832964e+003,2.443029e-001
2.838750e+003,2.429541e-001
2.844535e+003,2.437717e-001
2.850321e+003,2.486929e-001
2.856106e+003,2.421553e-001
2.861892e+003,2.368633e-001
2.867677e+003,2.305386e-001
2.873463e+003,2.286423e-001
2.879248e+003,2.248794e-001
2.885034e+003,2.208270e-001
2.890819e+003,2.203894e-001
2.896605e+003,2.183157e-001
2.902390e+003,2.153415e-001
2.908176e+003,2.157185e-001
2.913961e+003,2.204844e-001
2.919747e+003,2.220807e-001
2.925532e+003,2.186525e-001
2.931318e+003,2.126634e-001
2.937103e+003,2.051700e-001
2.942889e+003,2.005642e-001
2.948674e+003,1.973715e-001
2.954460e+003,1.982649e-001
2.960245e+003,1.947095e-001
2.966031e+003,1.913783e-001
2.971816e+003,1.881701e-001
2.977602e+003,1.851996e-001
2.983387e+003,1.815995e-001
2.989173e+003,1.762756e-001
2.994958e+003,1.728976e-001
3.000744e+003,1.683893e-001
3.006529e+003,1.612208e-001
3.012315e+003,1.586832e-001
3.018100e+003,1.509525e-001
3.023886e+003,1.478638e-001
3.029671e+003,1.433251e-001
3.035457e+003,1.393842e-001
3.041242e+003,1.362536e-001
3.047028e+003,1.335355e-001
3.052813e+003,1.303174e-001
3.058599e+003,1.270836e-001
3.064384e+003,1.230370e-001
3.070170e+003,1.220014e-001
3.075955e+003,1.205487e-001
3.081741e+003,1.178345e-001
3.087526e+003,1.156889e-001
3.093312e+003,1.140305e-001
3.099097e+003,1.131436e-001
3.104883e+003,1.109311e-001
3.110668e+003,1.087709e-001
3.116454e+003,1.070455e-001
3.122239e+003,1.054946e-001
3.128025e+003,1.048068e-001
3.133810e+003,1.050878e-001
3.139595e+003,1.017379e-001
3.145381e+003,1.003545e-001
3.151167e+003,1.014688e-001
3.156952e+003,9.940024e-002
3.162738e+003,9.759386e-002
3.168523e+003,9.734159e-002
3.174309e+003,9.531885e-002
3.180094e+003,9.432955e-002
3.185880e+003,9.483408e-002
3.191665e+003,9.238535e-002
3.197450e+003,9.172881e-002
3.203236e+003,9.072576e-002
3.209021e+003,9.078709e-002
3.214807e+003,9.002699e-002
3.220593e+003,8.924120e-002
3.226378e+003,8.861604e-002
3.232164e+003,8.638977e-002
3.237949e+003,8.688135e-002
3.243734e+003,8.538657e-002
3.249520e+003,8.394163e-002
3.255305e+003,8.252452e-002
3.261091e+003,8.271476e-002
3.266876e+003,8.269039e-002
3.272662e+003,8.081996e-002
3.278448e+003,8.106716e-002
3.284233e+003,7.917567e-002
3.290019e+003,7.858741e-002
3.295804e+003,7.865341e-002
3.301589e+003,7.819870e-002
3.307375e+003,7.728220e-002
3.313160e+003,7.708692e-002
3.318946e+003,7.527778e-002
3.324731e+003,7.500734e-002
3.330517e+003,7.506732e-002
3.336302e+003,7.440394e-002
3.342088e+003,7.337062e-002
3.347873e+003,7.321878e-002
3.353659e+003,7.161507e-002
3.359444e+003,7.230833e-002
3.365230e+003,7.179497e-002
3.371015e+003,7.055445e-002
3.376801e+003,7.025107e-002
3.382586e+003,6.871000e-002
3.388372e+003,7.042105e-002
3.394157e+003,6.797278e-002
3.399943e+003,7.076097e-002
3.405728e+003,6.814892e-002
3.411514e+003,6.817327e-002
3.417299e+003,6.742716e-002
3.423085e+003,6.586143e-002
3.428870e+003,6.745781e-002
3.434656e+003,6.658152e-002
3.440441e+003,6.666534e-002
3.446227e+003,6.615775e-002
3.452012e+003,6.586290e-002
3.457798e+003,6.514285e-002
3.463583e+003,6.748962e-002
3.469369e+003,6.593787e-002
3.475154e+003,6.574388e-002
3.480940e+003,6.633069e-002
3.486725e+003,6.729846e-002
3.492511e+003,6.510374e-002
3.498296e+003,6.479421e-002
3.504082e+003,6.389030e-002
3.509867e+003,6.683551e-002
3.515653e+003,6.737550e-002
3.521438e+003,6.916089e-002
3.527224e+003,6.838253e-002
3.533009e+003,6.694992e-002
3.538795e+003,6.471410e-002
3.544580e+003,6.325441e-002
3.550366e+003,6.157841e-002
3.556151e+003,6.480337e-002
3.561937e+003,7.297941e-002
3.567722e+003,7.766094e-002
3.573508e+003,8.049006e-002
3.579293e+003,6.482468e-002
3.585079e+003,5.727805e-002
3.590864e+003,6.229005e-002
3.596650e+003,6.874438e-002
3.602435e+003,6.068478e-002
3.608221e+003,5.319603e-002
3.614006e+003,5.368954e-002
3.619792e+003,5.351321e-002
3.625577e+003,5.088751e-002
3.631363e+003,5.284442e-002
3.637148e+003,4.941617e-002
3.642934e+003,4.912556e-002
3.648719e+003,4.979986e-002
3.654505e+003,4.745602e-002
3.660290e+003,4.641301e-002
3.666076e+003,4.508425e-002
3.671861e+003,4.819052e-002
3.677647e+003,4.988366e-002
3.683432e+003,4.631277e-002
3.689218e+003,4.700302e-002
3.695003e+003,4.697809e-002
3.700789e+003,4.419395e-002
3.706574e+003,4.611773e-002
3.712360e+003,4.681723e-002
3.718145e+003,4.371623e-002
3.723931e+003,4.720554e-002
3.729716e+003,4.496693e-002
3.735502e+003,4.663584e-002
3.741287e+003,4.475909e-002
3.747073e+003,4.593840e-002
3.752858e+003,4.841359e-002
3.758644e+003,4.317711e-002
3.764429e+003,4.129055e-002
3.770215e+003,4.363837e-002
3.776000e+003,4.312602e-002
3.781786e+003,4.355375e-002
3.787571e+003,4.370564e-002
3.793356e+003,4.228117e-002
3.799142e+003,4.198578e-002
3.804927e+003,4.060676e-002
3.810713e+003,3.951992e-002
3.816499e+003,4.362452e-002
3.822284e+003,4.592979e-002
3.828070e+003,4.154183e-002
3.833855e+003,4.281736e-002
3.839641e+003,4.613995e-002
3.845426e+003,4.457482e-002
3.851211e+003,3.714720e-002
3.856997e+003,4.378637e-002
3.862782e+003,3.911996e-002
3.868568e+003,3.942927e-002
3.874354e+003,4.174930e-002
3.880139e+003,3.976647e-002
3.885925e+003,4.200552e-002
3.891710e+003,4.116037e-002
3.897495e+003,3.878674e-002
3.903281e+003,3.791427e-002
3.909066e+003,3.907964e-002
3.914852e+003,3.790256e-002
3.920637e+003,3.959519e-002
3.926423e+003,3.838974e-002
3.932208e+003,3.934097e-002
3.937994e+003,3.596633e-002
3.943780e+003,3.779811e-002
3.949565e+003,3.865300e-002
3.955350e+003,3.636083e-002
3.961136e+003,3.717586e-002
3.966921e+003,3.689152e-002
3.972707e+003,3.717669e-002
3.978492e+003,3.609589e-002
3.984278e+003,3.646014e-002
3.990063e+003,3.551454e-002
3.995849e+003,3.487526e-002
4.001634e+003,3.581910e-002
4.007420e+003,3.686897e-002
4.013205e+003,3.497674e-002
4.018991e+003,3.623522e-002
4.024776e+003,3.532084e-002
4.030562e+003,3.587895e-002
4.036347e+003,3.466835e-002
4.042133e+003,3.530557e-002
4.047918e+003,3.407270e-002
4.053704e+003,3.408504e-002
4.059489e+003,3.573840e-002
4.065275e+003,3.363154e-002
4.071060e+003,3.500931e-002
4.076846e+003,3.376604e-002
4.082631e+003,3.435997e-002
4.088417e+003,3.370341e-002
4.094202e+003,3.591839e-002
4.099988e+003,3.413998e-002
4.105773e+003,3.349509e-002
4.111559e+003,3.338172e-002
4.117344e+003,3.342591e-002
4.123130e+003,3.490761e-002
4.128916e+003,3.400136e-002
4.134701e+003,3.359567e-002
4.140486e+003,3.138575e-002
4.146272e+003,3.218227e-002
4.152057e+003,3.375340e-002
4.157843e+003,3.273188e-002
4.163628e+003,3.218830e-002
4.169414e+003,3.139829e-002
4.175199e+003,3.289833e-002
4.180985e+003,3.209133e-002
4.186770e+003,3.296214e-002
4.192556e+003,3.155211e-002
4.198341e+003,3.269651e-002
4.204127e+003,3.197337e-002
4.209912e+003,3.439742e-002
4.215698e+003,3.155717e-002
4.221483e+003,3.283650e-002
4.227269e+003,3.353554e-002
4.233054e+003,3.305770e-002
4.238840e+003,3.293265e-002
4.244625e+003,3.220247e-002
4.250411e+003,3.223326e-002
4.256196e+003,3.139351e-002
4.261982e+003,3.289619e-002
4.267767e+003,3.281603e-002
4.273553e+003,3.403160e-002
4.279338e+003,3.042419e-002
4.285124e+003,3.146219e-002
4.290909e+003,3.307354e-002
4.296695e+003,3.296578e-002
4.302480e+003,3.162801e-002
4.308266e+003,3.266179e-002
4.314051e+003,3.179137e-002
4.319836e+003,3.114679e-002
4.325622e+003,3.181433e-002
4.331408e+003,3.137235e-002
4.337193e+003,3.240081e-002
4.342979e+003,3.181429e-002
4.348764e+003,3.286417e-002
4.354550e+003,3.084122e-002
4.360335e+003,3.149792e-002
4.366121e+003,3.178727e-002
4.371906e+003,3.187487e-002
4.377691e+003,3.285723e-002
4.383477e+003,3.196609e-002
4.389263e+003,3.131455e-002
4.395048e+003,3.486790e-002
4.400833e+003,3.184217e-002
4.406619e+003,3.102901e-002
4.412405e+003,3.144801e-002
4.418190e+003,3.120214e-002
4.423976e+003,3.161999e-002
4.429761e+003,2.970655e-002
4.435546e+003,3.333102e-002
4.441332e+003,3.357892e-002
4.447118e+003,3.284930e-002
4.452903e+003,3.250875e-002
4.458688e+003,3.132766e-002
4.464474e+003,3.340795e-002
4.470260e+003,3.081212e-002
4.476045e+003,3.215758e-002
4.481831e+003,3.287761e-002
4.487616e+003,3.299921e-002
4.493401e+003,3.055989e-002
4.499187e+003,3.237290e-002
4.504973e+003,3.190924e-002
4.510758e+003,3.204470e-002
4.516543e+003,3.384161e-002
4.522329e+003,3.182267e-002
4.528114e+003,3.324077e-002
4.533900e+003,3.260307e-002
4.539686e+003,3.245465e-002
4.545471e+003,3.188232e-002
4.551256e+003,3.261989e-002
4.557042e+003,3.251918e-002
4.562828e+003,3.163728e-002
4.568613e+003,2.935998e-002
4.574398e+003,3.301097e-002
4.580184e+003,3.267336e-002
4.585969e+003,3.188064e-002
4.591755e+003,2.926487e-002
4.597541e+003,2.935140e-002
4.603326e+003,3.052513e-002
4.609111e+003,3.292375e-002
4.614897e+003,3.320367e-002
4.620683e+003,3.215826e-002
4.626468e+003,3.325043e-002
4.632253e+003,3.178320e-002
4.638039e+003,3.402185e-002
4.643824e+003,3.030248e-002
4.649610e+003,3.118199e-002
4.655396e+003,3.163824e-002
4.661181e+003,3.002808e-002
4.666966e+003,3.160371e-002
4.672752e+003,3.281346e-002
4.678538e+003,3.210813e-002
4.684323e+003,3.316255e-002
4.690108e+003,3.329610e-002
4.695894e+003,3.157848e-002
4.701679e+003,3.299871e-002
4.707465e+003,3.159199e-002
4.713250e+003,3.323121e-002
4.719036e+003,3.047341e-002
4.724821e+003,2.986201e-002
4.730607e+003,3.186428e-002
4.736392e+003,2.966383e-002
4.742178e+003,3.155738e-002
4.747963e+003,3.045525e-002
4.753749e+003,3.008226e-002
4.759534e+003,3.255257e-002
4.765320e+003,3.446607e-002
4.771105e+003,3.226985e-002
4.776891e+003,2.908500e-002
4.782676e+003,3.288861e-002
4.788462e+003,3.223002e-002
4.794247e+003,2.960019e-002
4.800033e+003,3.020070e-002
4.805818e+003,3.115519e-002
4.811604e+003,3.018511e-002
4.817389e+003,3.114077e-002
4.823175e+003,3.054528e-002
4.828960e+003,3.221945e-002
4.834746e+003,3.184602e-002
4.840531e+003,3.181037e-002
4.846317e+003,3.203436e-002
4.852102e+003,3.161472e-002
4.857888e+003,3.315686e-002
4.863673e+003,3.339360e-002
4.869458e+003,3.074301e-002
4.875244e+003,3.144983e-002
4.881030e+003,3.213546e-002
4.886815e+003,3.194384e-002
4.892601e+003,2.805983e-002
4.898386e+003,3.135608e-002
4.904172e+003,3.290652e-002
4.909957e+003,3.156294e-002
4.915743e+003,3.266944e-002
4.921528e+003,3.224722e-002
4.927313e+003,3.043509e-002
4.933099e+003,3.205401e-002
4.938885e+003,3.186848e-002
4.944670e+003,3.056508e-002
4.950456e+003,3.288543e-002
4.956241e+003,3.048166e-002
4.962027e+003,3.272728e-002
4.967812e+003,3.161383e-002
4.973598e+003,3.365099e-002
4.979383e+003,3.057244e-002
4.985168e+003,3.258624e-002
4.990954e+003,3.134970e-002
4.996740e+003,3.219412e-002
5.002525e+003,3.289151e-002
5.008311e+003,3.114123e-002
5.014096e+003,2.952028e-002
5.019882e+003,3.161165e-002
5.025667e+003,3.038371e-002
5.031453e+003,3.092023e-002
5.037238e+003,2.979763e-002
5.043023e+003,2.978479e-002
5.048809e+003,3.133635e-002
5.054595e+003,3.110603e-002
5.060380e+003,3.426689e-002
5.066166e+003,3.293783e-002
5.071951e+003,3.286138e-002
5.077736e+003,3.495810e-002
5.083522e+003,2.786141e-002
5.089308e+003,3.301823e-002
5.095093e+003,3.177019e-002
5.100878e+003,3.229947e-002
5.106664e+003,3.097634e-002
5.112450e+003,2.988004e-002
5.118235e+003,3.467298e-002
5.124021e+003,3.335868e-002
5.129806e+003,3.213371e-002
5.135591e+003,3.013347e-002
5.141377e+003,3.240324e-002
5.147163e+003,3.133660e-002
5.152948e+003,3.241177e-002
5.158733e+003,3.426380e-002
5.164519e+003,3.068170e-002
5.170305e+003,3.374219e-002
5.176090e+003,3.202851e-002
5.181875e+003,3.270537e-002
5.187661e+003,3.263107e-002
5.193446e+003,3.413177e-002
5.199232e+003,3.429772e-002
5.205018e+003,3.727614e-002
5.210803e+003,3.454198e-002
5.216588e+003,3.185347e-002
5.222374e+003,3.273188e-002
5.228160e+003,3.389785e-002
5.233945e+003,3.031236e-002
5.239730e+003,3.556017e-002
5.245516e+003,3.580507e-002
5.251301e+003,3.467639e-002
5.257087e+003,3.228505e-002
5.262873e+003,3.560732e-002
5.268658e+003,3.503596e-002
5.274443e+003,3.030962e-002
5.280229e+003,3.358139e-002
5.286014e+003,3.671455e-002
5.291800e+003,3.088056e-002
5.297585e+003,3.348568e-002
5.303371e+003,3.237800e-002
5.309156e+003,3.469979e-002
5.314942e+003,3.508632e-002
5.320728e+003,3.376830e-002
5.326513e+003,3.566861e-002
5.332298e+003,3.354856e-002
5.338084e+003,4.125717e-002
5.343869e+003,3.366216e-002
5.349655e+003,3.568818e-002
5.355440e+003,3.739938e-002
5.361226e+003,3.498679e-002
5.367011e+003,3.891925e-002
5.372797e+003,3.413414e-002
5.378583e+003,3.544562e-002
5.384368e+003,3.399871e-002
5.390153e+003,3.329661e-002
5.395939e+003,3.594714e-002
5.401724e+003,3.405049e-002
5.407510e+003,3.352991e-002
5.413295e+003,3.971019e-002
5.419081e+003,3.614105e-002
5.424866e+003,3.303314e-002
5.430652e+003,3.374444e-002
5.436438e+003,3.895738e-002
5.442223e+003,3.674091e-002
5.448008e+003,3.758674e-002
5.453794e+003,3.544245e-002
5.459579e+003,3.387661e-002
5.465365e+003,3.537864e-002
5.471150e+003,3.551163e-002
5.476936e+003,3.927100e-002
5.482721e+003,3.861505e-002
5.488507e+003,3.748032e-002
5.494292e+003,3.940867e-002
5.500078e+003,4.028567e-002
5.505863e+003,3.659994e-002
5.511649e+003,3.375547e-002
5.517434e+003,3.970231e-002
5.523220e+003,3.887493e-002
5.529005e+003,3.490395e-002
5.534791e+003,3.436958e-002
5.540576e+003,3.535143e-002
5.546362e+003,3.628806e-002
5.552147e+003,4.070610e-002
5.557933e+003,3.728701e-002
5.563718e+003,3.787446e-002
5.569504e+003,3.921830e-002
5.575289e+003,3.788343e-002
5.581075e+003,3.856895e-002
5.586860e+003,3.932203e-002
5.592646e+003,3.998069e-002
5.598431e+003,3.876710e-002
5.604217e+003,4.026942e-002
5.610002e+003,3.670024e-002
5.615788e+003,3.695436e-002
5.621573e+003,4.134153e-002
5.627358e+003,4.420690e-002
5.633144e+003,4.293516e-002
5.638930e+003,3.824122e-002
5.644715e+003,4.089671e-002
5.650500e+003,3.947245e-002
5.656286e+003,4.531265e-002
5.662072e+003,4.183200e-002
5.667857e+003,4.264816e-002
5.673643e+003,4.524826e-002
5.679428e+003,4.313206e-002
5.685213e+003,3.868575e-002
5.690999e+003,4.788756e-002
5.696785e+003,4.211872e-002
5.702570e+003,4.590143e-002
5.708355e+003,4.113892e-002
5.714141e+003,4.688023e-002
5.719927e+003,4.604725e-002
5.725712e+003,4.619972e-002
5.731498e+003,4.721023e-002
5.737283e+003,4.766415e-002
5.743068e+003,4.685060e-002
5.748854e+003,4.884156e-002
5.754640e+003,5.013268e-002
5.760425e+003,5.201671e-002
5.766210e+003,4.900303e-002
5.771996e+003,4.491273e-002
5.777782e+003,4.768952e-002
5.783567e+003,4.831656e-002
5.789353e+003,4.829867e-002
5.795138e+003,4.534991e-002
5.800923e+003,5.427462e-002
5.806709e+003,5.465805e-002
5.812495e+003,4.508355e-002
5.818280e+003,5.665577e-002
5.824065e+003,5.113520e-002
5.829851e+003,4.846383e-002
5.835637e+003,5.586025e-002
5.841422e+003,5.438772e-002
5.847208e+003,5.867281e-002
5.852993e+003,5.737688e-002
5.858778e+003,5.436910e-002
5.864564e+003,5.775405e-002
5.870350e+003,5.796309e-002
5.876135e+003,5.869997e-002
5.881920e+003,6.218451e-002
5.887706e+003,6.388381e-002
5.893491e+003,5.998307e-002
5.899277e+003,5.780174e-002
5.905063e+003,5.838110e-002
5.910848e+003,6.599333e-002
5.916633e+003,6.364512e-002
5.922419e+003,6.386942e-002
5.928205e+003,6.610377e-002
5.933990e+003,6.238322e-002
5.939775e+003,6.644636e-002
5.945561e+003,7.254753e-002
5.951346e+003,6.919350e-002
5.957132e+003,6.685498e-002
5.962917e+003,6.931575e-002
5.968703e+003,6.810191e-002
5.974488e+003,7.162019e-002
5.980274e+003,6.781483e-002
5.986060e+003,6.806063e-002
5.991845e+003,7.394312e-002
5.997630e+003,7.234829e-002
6.003416e+003,7.746699e-002
6.009201e+003,8.339836e-002
6.014987e+003,7.800142e-002
6.020772e+003,7.806559e-002
6.026558e+003,8.080583e-002
6.032343e+003,8.201795e-002
6.038129e+003,7.783689e-002
6.043915e+003,8.193259e-002
6.049700e+003,8.273264e-002
6.055485e+003,8.740533e-002
6.061271e+003,8.483163e-002
6.067056e+003,8.908472e-002
6.072842e+003,9.002659e-002
6.078627e+003,8.979925e-002
6.084413e+003,9.407177e-002
6.090198e+003,9.511678e-002
6.095984e+003,9.707613e-002
6.101769e+003,9.321994e-002
6.107555e+003,9.190147e-002
6.113340e+003,9.750999e-002
6.119126e+003,9.891161e-002
6.124911e+003,1.031627e-001
6.130697e+003,1.042463e-001
6.136482e+003,1.049242e-001
6.142268e+003,1.131422e-001
6.148053e+003,1.066325e-001
6.153839e+003,1.130996e-001
6.159624e+003,1.126835e-001
6.165410e+003,1.080919e-001
6.171195e+003,1.169268e-001
6.176981e+003,1.156516e-001
6.182766e+003,1.253368e-001
6.188552e+003,1.176841e-001
6.194337e+003,1.215923e-001
6.200123e+003,1.253525e-001
6.205908e+003,1.365177e-001
6.211694e+003,1.340511e-001
6.217479e+003,1.361194e-001
6.223265e+003,1.279532e-001
6.229050e+003,1.332790e-001
6.234835e+003,1.411795e-001
6.240621e+003,1.427104e-001
6.246407e+003,1.417130e-001
6.252192e+003,1.453319e-001
6.257978e+003,1.450655e-001
6.263763e+003,1.364521e-001
6.269549e+003,1.548098e-001
6.275334e+003,1.550719e-001
6.281120e+003,1.534412e-001
6.286905e+003,1.570829e-001
6.292690e+003,1.586997e-001
6.298476e+003,1.625749e-001
6.304262e+003,1.658326e-001
6.310047e+003,1.603850e-001
6.315833e+003,1.762426e-001
6.321618e+003,1.804377e-001
6.327404e+003,1.812847e-001
6.333189e+003,1.746806e-001
6.338975e+003,1.785181e-001
6.344760e+003,1.868929e-001
6.350545e+003,1.840170e-001
6.356331e+003,1.948035e-001
6.362117e+003,1.824532e-001
6.367902e+003,1.939593e-001
6.373688e+003,2.006395e-001
6.379473e+003,1.962911e-001
6.385259e+003,2.003874e-001
6.391044e+003,2.058060e-001
6.396830e+003,2.061142e-001
6.402615e+003,2.194235e-001
6.408400e+003,2.094149e-001
6.414186e+003,2.124398e-001
6.419972e+003,2.255868e-001
6.425757e+003,2.306443e-001
6.431542e+003,2.339931e-001
6.437328e+003,2.339914e-001
6.443113e+003,2.395502e-001
6.448899e+003,2.452828e-001
6.454685e+003,2.531360e-001
6.460470e+003,2.680880e-001
6.466255e+003,2.478047e-001
6.472041e+003,2.514598e-001
6.477827e+003,2.602670e-001
6.483612e+003,2.681431e-001
6.489397e+003,2.711501e-001
6.495183e+003,2.712664e-001
6.500968e+003,2.813203e-001
6.506754e+003,2.771875e-001
6.512540e+003,2.987485e-001
6.518325e+003,3.052174e-001
6.524110e+003,3.018031e-001
6.529896e+003,3.015913e-001
6.535682e+003,3.036847e-001
6.541467e+003,3.148591e-001
6.547252e+003,3.109227e-001
6.553038e+003,3.169346e-001
6.558823e+003,3.261216e-001
6.564609e+003,3.393238e-001
6.570395e+003,3.362742e-001
6.576180e+003,3.257817e-001
6.581965e+003,3.363389e-001
6.587751e+003,3.601811e-001
6.593537e+003,3.494639e-001
6.599322e+003,3.708090e-001
6.605107e+003,3.648114e-001
6.610893e+003,3.801740e-001
6.616678e+003,3.756625e-001
6.622464e+003,3.740170e-001
6.628250e+003,3.823437e-001
6.634035e+003,3.972270e-001
6.639820e+003,4.077176e-001
6.645606e+003,4.024054e-001
6.651391e+003,4.209546e-001
6.657177e+003,3.990698e-001
6.662962e+003,4.252295e-001
6.668748e+003,4.287799e-001
6.674533e+003,4.428294e-001
6.680319e+003,4.256392e-001
6.686104e+003,4.368269e-001
6.691890e+003,4.304631e-001
6.697675e+003,4.597698e-001
6.703461e+003,4.740052e-001
6.709246e+003,4.416878e-001
6.715032e+003,4.668705e-001
6.720817e+003,4.906538e-001
6.726603e+003,4.802585e-001
6.732388e+003,5.120069e-001
6.738174e+003,5.157222e-001
6.743959e+003,5.007438e-001
6.749745e+003,5.107018e-001
6.755530e+003,5.303152e-001
6.761316e+003,5.213130e-001
6.767101e+003,5.202949e-001
6.772887e+003,5.287999e-001
6.778672e+003,5.609179e-001
6.784458e+003,5.544717e-001
6.790243e+003,5.766093e-001
6.796029e+003,5.664711e-001
6.801814e+003,5.809665e-001
6.807600e+003,5.517926e-001
6.813385e+003,5.898323e-001
6.819171e+003,5.435709e-001
6.824956e+003,5.862707e-001
6.830742e+003,6.064668e-001
6.836527e+003,6.562797e-001
6.842313e+003,6.207548e-001
6.848098e+003,6.216466e-001
6.853884e+003,6.049954e-001
6.859669e+003,6.543760e-001
6.865455e+003,6.852894e-001
6.871240e+003,6.359147e-001
6.877026e+003,6.661461e-001
6.882811e+003,7.201554e-001
6.888597e+003,6.507247e-001
6.894382e+003,6.813998e-001
6.900167e+003,7.104579e-001
6.905953e+003,6.716796e-001
6.911739e+003,7.419803e-001
6.917524e+003,7.302219e-001
6.923310e+003,7.136304e-001
6.929095e+003,8.000566e-001
6.934881e+003,6.732388e-001
6.940666e+003,7.589366e-001
6.946452e+003,8.414680e-001
6.952237e+003,7.527249e-001
6.958022e+003,7.727540e-001
6.963808e+003,7.610399e-001
6.969594e+003,8.192501e-001
6.975379e+003,7.721385e-001
6.981165e+003,8.143497e-001
6.986950e+003,8.358305e-001
6.992735e+003,8.726004e-001
6.998521e+003,8.946777e-001
7.004307e+003,8.881050e-001
7.010092e+003,8.808765e-001
7.015877e+003,8.511434e-001
7.021663e+003,8.242921e-001
7.027449e+003,8.271809e-001
7.033234e+003,9.233053e-001
7.039020e+003,8.339590e-001
7.044805e+003,9.008530e-001
7.050590e+003,9.795364e-001
7.056376e+003,9.753783e-001
7.062162e+003,9.266922e-001
7.067947e+003,8.862872e-001
7.073732e+003,1.000348e+000
7.079518e+003,9.457048e-001
7.085304e+003,9.439484e-001
7.091089e+003,9.780650e-001
7.096875e+003,9.428406e-001
7.102660e+003,9.421095e-001
7.108445e+003,1.075514e+000
7.114231e+003,9.366508e-001
7.120017e+003,1.035460e+000
7.125802e+003,1.043077e+000
7.131587e+003,1.122864e+000
7.137373e+003,1.012942e+000
7.143159e+003,9.023489e-001
7.148944e+003,1.022930e+000
7.154729e+003,9.664465e-001
7.160515e+003,1.051652e+000
7.166300e+003,9.490965e-001
7.172086e+003,1.195819e+000
7.177872e+003,9.280438e-001
7.183657e+003,1.229655e+000
7.189442e+003,1.038311e+000
7.195228e+003,1.514095e+000
7.201013e+003,1.101733e+000
7.206799e+003,1.044410e+000
7.212584e+003,1.014915e+000
7.218370e+003,1.209010e+000
7.224155e+003,1.391220e+000
7.229941e+003,1.193468e+000
7.235727e+003,1.056767e+000
7.241512e+003,1.103335e+000
7.247297e+003,1.196636e+000
7.253083e+003,1.279498e+000
7.258868e+003,1.431655e+000
7.264654e+003,1.250525e+000
7.270439e+003,1.157759e+000
7.276225e+003,1.115587e+000
7.282010e+003,1.742617e+000
7.287796e+003,1.066382e+000
7.293582e+003,1.310943e+000
7.299367e+003,1.155476e+000
7.305152e+003,1.098801e+000
7.310938e+003,1.219611e+000
7.316723e+003,1.478275e+000
7.322509e+003,1.104157e+000
7.328294e+003,1.029043e+000
7.334080e+003,1.240824e+000
7.339865e+003,1.447109e+000
7.345651e+003,1.146054e+000
7.351437e+003,1.356850e+000
7.357222e+003,1.837940e+000
7.363007e+003,1.724365e+000
7.368793e+003,1.147639e+000
7.374578e+003,1.237551e+000
7.380364e+003,1.161186e+000
7.386149e+003,1.244479e+000
7.391935e+003,1.277720e+000
7.397720e+003,1.409908e+000
7.403506e+003,1.362083e+000
7.409291e+003,1.204949e+000
7.415077e+003,1.184040e+000
7.420862e+003,1.435470e+000
7.426648e+003,1.493371e+000
7.432433e+003,1.050683e+000
7.438219e+003,1.524276e+000
7.444004e+003,1.552430e+000
7.449790e+003,1.569402e+000
7.455575e+003,1.777299e+000
7.461361e+003,1.278293e+000
7.467146e+003,1.281907e+000
7.472932e+003,1.458475e+000
7.478717e+003,1.382337e+000
7.484503e+003,1.298912e+000
7.490288e+003,1.645657e+000
7.496074e+003,1.172426e+000
7.501859e+003,1.173661e+000
7.507645e+003,1.241918e+000
7.513430e+003,1.834941e+000
7.519216e+003,1.068007e+000
7.525001e+003,1.545857e+000
7.530787e+003,1.563432e+000
7.536572e+003,1.101136e+000
7.542357e+003,6.000000e+000
7.548143e+003,1.536486e+000
7.553929e+003,1.999699e+000
7.559714e+003,1.776808e+000
7.565500e+003,1.521221e+000
7.571285e+003,1.229695e+000
7.577071e+003,1.373744e+000
7.582856e+003,6.000000e+000
7.588642e+003,1.624917e+000
7.594427e+003,1.419836e+000
7.600212e+003,1.879503e+000
7.605998e+003,1.258886e+000
7.611784e+003,1.150322e+000
7.617569e+003,1.316428e+000
7.623354e+003,1.167066e+000
7.629140e+003,1.737916e+000
7.634926e+003,3.558027e+000
7.640711e+003,6.000000e+000
7.646497e+003,1.319339e+000
7.652282e+003,1.458788e+000
7.658067e+003,1.868057e+000
7.663853e+003,1.417559e+000
7.669639e+003,1.320189e+000
7.675424e+003,1.130251e+000
7.681209e+003,1.316800e+000
7.686995e+003,1.181393e+000
7.692781e+003,1.540984e+000
7.698566e+003,6.000000e+000
7.704352e+003,6.000000e+000
7.710137e+003,6.000000e+000
7.715922e+003,1.199400e+000
7.721708e+003,1.723586e+000
7.727494e+003,2.193358e+000
7.733279e+003,1.597493e+000
7.739064e+003,1.139692e+000
7.744850e+003,1.757972e+000
7.750635e+003,6.000000e+000
7.756421e+003,1.279921e+000
7.762207e+003,1.377030e+000
7.767992e+003,6.000000e+000
7.773777e+003,1.184282e+000
7.779563e+003,1.324371e+000
7.785349e+003,1.228719e+000
7.791134e+003,1.453880e+000
7.796919e+003,6.000000e+000
7.802705e+003,1.556726e+000
7.808490e+003,1.921786e+000
7.814276e+003,1.027551e+000
7.820062e+003,1.254122e+000
7.825847e+003,2.316682e+000
7.831632e+003,9.896567e-001
7.837418e+003,1.217235e+000
7.843204e+003,1.236132e+000
7.848989e+003,6.000000e+000
7.854774e+003,6.000000e+000
7.860560e+003,1.150981e+000
7.866345e+003,6.000000e+000
7.872131e+003,1.355210e+000
7.877917e+003,1.856137e+000
7.883702e+003,1.188459e+000
7.889487e+003,6.000000e+000
7.895273e+003,1.478661e+000
7.901059e+003,6.000000e+000
7.906844e+003,1.433373e+000
7.912629e+003,6.000000e+000
7.918415e+003,6.000000e+000
7.924200e+003,1.065560e+000
7.929986e+003,6.000000e+000
7.935771e+003,1.012399e+000
7.941557e+003,9.386632e-001
7.947342e+003,1.194557e+000
7.953128e+003,9.087648e-001
7.958914e+003,1.050861e+000
7.964699e+003,1.366194e+000
7.970484e+003,6.000000e+000
7.976270e+003,1.075506e+000
7.982055e+003,8.820351e-001
7.987841e+003,1.068515e+000
7.993626e+003,6.000000e+000
7.999412e+003,1.038901e+000
8.005197e+003,6.000000e+000
8.010983e+003,6.000000e+000
8.016768e+003,1.133780e+000
8.022554e+003,1.086629e+000
8.028339e+003,8.592336e-001
8.034125e+003,8.123676e-001
8.039910e+003,1.335312e+000
8.045696e+003,1.035611e+000
8.051481e+003,9.175901e-001
8.057267e+003,2.230991e+000
8.063052e+003,1.361107e+000
8.068838e+003,1.261822e+000
8.074623e+003,6.000000e+000
8.080409e+003,1.806436e+000
8.086194e+003,2.882253e+000
8.091979e+003,6.000000e+000
8.097765e+003,9.555312e-001
8.103551e+003,9.372146e-001
8.109336e+003,1.183699e+000
8.115122e+003,8.771055e-001
8.120907e+003,1.198691e+000
8.126693e+003,1.278739e+000
8.132478e+003,1.915988e+000
8.138264e+003,1.047127e+000
8.144049e+003,1.060396e+000
8.149834e+003,1.787748e+000
8.155620e+003,1.099923e+000
8.161406e+003,1.006770e+000
8.167191e+003,7.723223e-001
8.172977e+003,7.303036e-001
8.178762e+003,7.925395e-001
8.184548e+003,7.052561e-001
8.190333e+003,6.000000e+000
8.196118e+003,1.378420e+000
8.201904e+003,6.000000e+000
8.207689e+003,1.241870e+000
8.213476e+003,6.000000e+000
8.219261e+003,9.933208e-001
8.225046e+003,9.362549e-001
8.230832e+003,6.000000e+000
8.236617e+003,1.363511e+000
8.242402e+003,6.000000e+000
8.248188e+003,2.399342e+000
8.253974e+003,6.000000e+000
8.259759e+003,6.000000e+000
8.265545e+003,6.428605e-001
8.271330e+003,1.180215e+000
8.277115e+003,6.808728e-001
8.282901e+003,4.981729e-001
8.288687e+003,7.687213e-001
8.294472e+003,6.000000e+000
8.300258e+003,6.000000e+000
8.306043e+003,6.000000e+000
8.311828e+003,5.587285e-001
8.317614e+003,5.470578e-001
8.323399e+003,7.673899e-001
8.329185e+003,2.532840e-001
8.334971e+003,1.473953e+000
8.340756e+003,9.281808e-001
8.346542e+003,1.432926e+000
8.352327e+003,6.000000e+000
8.358112e+003,6.000000e+000
8.363898e+003,1.627134e+000
8.369684e+003,9.597188e-001
8.375469e+003,6.000000e+000
8.381255e+003,5.585247e-001
8.387040e+003,1.352944e+000
8.392825e+003,6.000000e+000
8.398611e+003,6.779881e-001
8.404396e+003,6.126444e-001
8.410182e+003,8.957736e-001
8.415968e+003,6.792212e-001
8.421753e+003,1.049079e+000
8.427538e+003,1.384617e+000
8.433324e+003,1.358259e+000
8.439109e+003,1.103991e+000
8.444895e+003,6.000000e+000
8.450681e+003,9.879283e-001
8.456466e+003,6.000000e+000
8.462251e+003,6.203325e-001
8.468037e+003,1.141469e+000
8.473822e+003,1.135763e+000
8.479608e+003,1.571079e+000
8.485394e+003,6.000000e+000
8.491179e+003,9.243701e-002
8.496965e+003,8.969519e-001
8.500821e+003,3.537179e-001