File: olivine/FTIR/SC1-2-800C-7hr-c00-copper.CSV
4.493401e+002,6.000000e+000
4.551256e+002,1.499099e+000
4.609111e+002,2.340323e-001
4.666966e+002,3.062645e-001
4.724821e+002,8.474824e-001
4.782676e+002,6.000000e+000
4.840531e+002,1.174156e+000
4.898386e+002,2.552472e-001
4.956241e+002,1.395261e+000
5.014096e+002,7.320846e-001
5.071951e+002,5.880024e-001
5.129806e+002,6.000000e+000
5.187661e+002,2.109348e+000
5.245516e+002,1.005189e+000
5.303371e+002,1.328472e+000
5.361226e+002,6.000000e+000
5.419081e+002,1.196835e+000
5.476935e+002,6.000000e+000
5.534791e+002,9.177694e-001
5.592646e+002,6.000000e+000
5.650500e+002,1.762847e+000
5.708356e+002,6.000000e+000
5.766210e+002,1.590295e+000
5.824066e+002,1.683700e+000
5.881920e+002,1.580657e+000
5.939775e+002,1.828713e+000
5.997631e+002,2.113315e+000
6.055485e+002,1.899838e+000
6.113340e+002,2.048062e+000
6.171195e+002,1.658531e+000
6.229050e+002,2.046230e+000
6.286905e+002,2.016347e+000
6.344760e+002,1.912081e+000
6.402615e+002,1.867988e+000
6.460470e+002,2.021950e+000
6.518325e+002,2.190583e+000
6.576180e+002,2.046981e+000
6.634035e+002,2.011979e+000
6.691890e+002,1.923703e+000
6.749745e+002,2.009702e+000
6.807599e+002,2.038852e+000
6.865455e+002,1.975092e+000
6.923309e+002,2.094086e+000
6.981165e+002,1.969052e+000
7.039020e+002,2.109109e+000
7.096874e+002,2.093204e+000
7.154730e+002,2.062494e+000
7.212584e+002,2.094275e+000
7.270439e+002,2.006139e+000
7.328294e+002,2.110025e+000
7.386149e+002,2.103081e+000
7.444004e+002,1.969179e+000
7.501859e+002,2.019209e+000
7.559714e+002,2.030154e+000
7.617569e+002,2.049046e+000
7.675424e+002,1.923589e+000
7.733279e+002,2.052891e+000
7.791134e+002,1.925057e+000
7.848989e+002,1.936544e+000
7.906844e+002,2.042335e+000
7.964699e+002,1.948864e+000
8.022554e+002,2.028139e+000
8.080409e+002,1.963409e+000
8.138264e+002,1.971151e+000
8.196119e+002,2.053707e+000
8.253973e+002,2.034380e+000
8.311829e+002,2.071113e+000
8.369683e+002,1.944900e+000
8.427538e+002,2.027662e+000
8.485394e+002,2.160466e+000
8.543248e+002,2.080344e+000
8.601104e+002,1.993312e+000
8.658958e+002,1.976771e+000
8.716813e+002,2.042121e+000
8.774668e+002,2.068078e+000
8.832523e+002,1.980438e+000
8.890378e+002,2.052739e+000
8.948233e+002,2.082865e+000
9.006088e+002,2.161389e+000
9.063943e+002,2.112793e+000
9.121798e+002,1.996704e+000
9.179653e+002,2.116653e+000
9.237508e+002,2.046348e+000
9.295363e+002,2.035949e+000
9.353218e+002,2.022627e+000
9.411072e+002,2.048879e+000
9.468928e+002,2.029859e+000
9.526783e+002,2.072686e+000
9.584637e+002,2.109480e+000
9.642493e+002,2.117535e+000
9.700347e+002,2.091811e+000
9.758203e+002,2.094707e+000
9.816057e+002,1.997754e+000
9.873912e+002,2.056108e+000
9.931768e+002,2.068998e+000
9.989622e+002,2.147617e+000
1.004748e+003,2.078279e+000
1.010533e+003,2.096663e+000
1.016319e+003,2.039594e+000
1.022104e+003,2.123511e+000
1.027890e+003,2.065730e+000
1.033675e+003,2.182665e+000
1.039461e+003,2.120712e+000
1.045246e+003,2.080087e+000
1.051032e+003,2.244442e+000
1.056817e+003,2.123804e+000
1.062603e+003,2.161492e+000
1.068388e+003,2.141745e+000
1.074174e+003,2.130542e+000
1.079959e+003,2.111768e+000
1.085745e+003,2.188690e+000
1.091530e+003,2.026826e+000
1.097316e+003,2.099423e+000
1.103101e+003,2.070984e+000
1.108887e+003,2.112293e+000
1.114672e+003,2.144035e+000
1.120458e+003,2.211966e+000
1.126243e+003,2.237610e+000
1.132029e+003,2.187811e+000
1.137814e+003,2.158291e+000
1.143600e+003,2.120995e+000
1.149385e+003,2.095584e+000
1.155171e+003,2.162230e+000
1.160956e+003,2.132091e+000
1.166742e+003,2.142528e+000
1.172527e+003,2.166530e+000
1.178313e+003,2.149684e+000
1.184098e+003,2.135355e+000
1.189884e+003,2.171668e+000
1.195669e+003,2.223356e+000
1.201455e+003,2.164829e+000
1.207240e+003,2.097920e+000
1.213026e+003,2.158699e+000
1.218811e+003,2.204049e+000
1.224597e+003,2.214535e+000
1.230382e+003,2.244247e+000
1.236167e+003,2.175370e+000
1.241953e+003,2.192983e+000
1.247739e+003,2.145332e+000
1.253524e+003,2.132727e+000
1.259310e+003,2.149878e+000
1.265095e+003,2.163427e+000
1.270880e+003,2.130586e+000
1.276666e+003,2.167389e+000
1.282452e+003,2.164688e+000
1.288237e+003,2.184602e+000
1.294022e+003,2.190531e+000
1.299808e+003,2.187676e+000
1.305594e+003,2.208745e+000
1.311379e+003,2.171151e+000
1.317164e+003,2.181014e+000
1.322950e+003,2.088869e+000
1.328735e+003,2.177197e+000
1.334521e+003,2.160831e+000
1.340307e+003,2.096388e+000
1.346092e+003,2.162225e+000
1.351877e+003,2.156209e+000
1.357663e+003,2.188854e+000
1.363448e+003,2.050903e+000
1.369234e+003,2.146266e+000
1.375019e+003,2.182065e+000
1.380805e+003,2.178446e+000
1.386590e+003,2.103985e+000
1.392376e+003,2.120565e+000
1.398161e+003,2.045780e+000
1.403947e+003,2.133678e+000
1.409732e+003,2.255799e+000
1.415518e+003,2.178606e+000
1.421303e+003,2.101553e+000
1.427089e+003,2.140281e+000
1.432874e+003,2.139481e+000
1.438660e+003,2.154521e+000
1.444445e+003,2.215829e+000
1.450231e+003,2.111800e+000
1.456016e+003,2.037902e+000
1.461802e+003,2.107528e+000
1.467587e+003,2.156499e+000
1.473373e+003,2.046532e+000
1.479158e+003,2.191814e+000
1.484944e+003,2.088087e+000
1.490729e+003,2.100294e+000
1.496515e+003,2.065216e+000
1.502300e+003,2.073600e+000
1.508086e+003,2.015060e+000
1.513871e+003,2.079213e+000
1.519657e+003,2.056444e+000
1.525442e+003,2.185084e+000
1.531228e+003,2.142215e+000
1.537013e+003,2.126345e+000
1.542799e+003,2.015409e+000
1.548584e+003,2.123820e+000
1.554370e+003,2.082804e+000
1.560155e+003,2.105282e+000
1.565941e+003,2.079483e+000
1.571726e+003,2.129059e+000
1.577512e+003,2.156811e+000
1.583297e+003,2.175633e+000
1.589083e+003,2.206159e+000
1.594868e+003,2.164649e+000
1.600654e+003,2.140286e+000
1.606439e+003,2.135113e+000
1.612225e+003,2.221529e+000
1.618010e+003,2.128879e+000
1.623796e+003,2.151946e+000
1.629581e+003,2.159990e+000
1.635367e+003,2.007154e+000
1.641152e+003,2.175753e+000
1.646938e+003,2.057170e+000
1.652723e+003,2.010251e+000
1.658509e+003,2.153141e+000
1.664294e+003,2.249116e+000
1.670080e+003,2.147072e+000
1.675865e+003,2.153739e+000
1.681651e+003,2.123511e+000
1.687436e+003,2.148958e+000
1.693222e+003,2.182651e+000
1.699007e+003,2.034129e+000
1.704793e+003,2.103412e+000
1.710578e+003,2.128728e+000
1.716364e+003,2.120249e+000
1.722149e+003,2.125071e+000
1.727935e+003,2.281078e+000
1.733720e+003,2.201552e+000
1.739506e+003,2.137678e+000
1.745291e+003,2.316118e+000
1.751077e+003,2.242100e+000
1.756862e+003,2.225096e+000
1.762648e+003,2.114688e+000
1.768433e+003,2.200772e+000
1.774219e+003,2.162897e+000
1.780004e+003,2.184782e+000
1.785790e+003,2.247454e+000
1.791575e+003,2.182257e+000
1.797361e+003,2.195504e+000
1.803146e+003,2.236564e+000
1.808932e+003,2.222099e+000
1.814717e+003,2.312328e+000
1.820503e+003,2.261488e+000
1.826288e+003,2.220483e+000
1.832074e+003,2.177855e+000
1.837859e+003,2.255100e+000
1.843645e+003,2.172667e+000
1.849430e+003,2.273586e+000
1.855216e+003,2.213014e+000
1.861001e+003,2.215105e+000
1.866786e+003,2.222397e+000
1.872572e+003,2.210918e+000
1.878358e+003,2.197148e+000
1.884143e+003,2.244941e+000
1.889929e+003,2.258550e+000
1.895714e+003,2.263510e+000
1.901500e+003,2.196153e+000
1.907285e+003,2.210079e+000
1.913071e+003,2.263232e+000
1.918856e+003,2.150978e+000
1.924641e+003,2.172897e+000
1.930427e+003,2.230492e+000
1.936213e+003,2.298450e+000
1.941998e+003,2.247080e+000
1.947783e+003,2.238793e+000
1.953569e+003,2.240847e+000
1.959354e+003,2.296978e+000
1.965140e+003,2.268461e+000
1.970925e+003,2.233226e+000
1.976711e+003,2.305168e+000
1.982496e+003,2.269095e+000
1.988282e+003,2.266986e+000
1.994068e+003,2.197596e+000
1.999853e+003,2.309430e+000
2.005638e+003,2.341958e+000
2.011424e+003,2.338661e+000
2.017209e+003,2.294441e+000
2.022995e+003,2.253824e+000
2.028780e+003,2.294779e+000
2.034566e+003,2.243638e+000
2.040351e+003,2.265358e+000
2.046137e+003,2.283208e+000
2.051922e+003,2.179201e+000
2.057708e+003,2.068126e+000
2.063493e+003,1.918025e+000
2.069279e+003,1.791590e+000
2.075064e+003,1.701649e+000
2.080850e+003,1.611772e+000
2.086635e+003,1.523869e+000
2.092421e+003,1.482624e+000
2.098206e+003,1.416035e+000
2.103992e+003,1.376538e+000
2.109777e+003,1.359534e+000
2.115563e+003,1.324477e+000
2.121348e+003,1.295800e+000
2.127134e+003,1.271438e+000
2.132919e+003,1.237413e+000
2.138705e+003,1.236269e+000
2.144490e+003,1.214891e+000
2.150276e+003,1.193224e+000
2.156061e+003,1.166716e+000
2.161847e+003,1.145132e+000
2.167632e+003,1.132516e+000
2.173418e+003,1.110502e+000
2.179203e+003,1.092354e+000
2.184989e+003,1.079306e+000
2.190774e+003,1.061532e+000
2.196560e+003,1.047395e+000
2.202345e+003,1.029432e+000
2.208131e+003,1.017812e+000
2.213916e+003,9.990901e-001
2.219702e+003,9.838279e-001
2.225487e+003,9.640837e-001
2.231273e+003,9.537929e-001
2.237058e+003,9.388869e-001
2.242844e+003,9.288741e-001
2.248629e+003,9.174199e-001
2.254415e+003,9.042352e-001
2.260200e+003,8.906215e-001
2.265986e+003,8.799219e-001
2.271771e+003,8.639413e-001
2.277557e+003,8.497139e-001
2.283342e+003,8.392748e-001
2.289128e+003,8.270450e-001
2.294913e+003,8.187039e-001
2.300699e+003,8.094462e-001
2.306484e+003,7.993134e-001
2.312270e+003,7.952632e-001
2.318055e+003,7.895054e-001
2.323841e+003,7.817891e-001
2.329626e+003,7.783929e-001
2.335412e+003,7.532198e-001
2.341197e+003,7.581048e-001
2.346983e+003,7.462431e-001
2.352768e+003,7.329681e-001
2.358554e+003,7.413606e-001
2.364339e+003,7.329746e-001
2.370125e+003,7.084725e-001
2.375910e+003,6.906864e-001
2.381696e+003,6.744685e-001
2.387481e+003,6.634057e-001
2.393267e+003,6.528166e-001
2.399052e+003,6.460534e-001
2.404838e+003,6.375431e-001
2.410623e+003,6.276713e-001
2.416409e+003,6.226773e-001
2.422194e+003,6.142123e-001
2.427980e+003,6.067234e-001
2.433765e+003,6.016632e-001
2.439551e+003,5.948884e-001
2.445336e+003,5.889615e-001
2.451122e+003,5.834054e-001
2.456907e+003,5.762554e-001
2.462693e+003,5.717950e-001
2.468478e+003,5.696259e-001
2.474264e+003,5.681760e-001
2.480049e+003,5.679210e-001
2.485834e+003,5.682390e-001
2.491620e+003,5.653877e-001
2.497406e+003,5.571746e-001
2.503191e+003,5.456915e-001
2.508977e+003,5.347483e-001
2.514762e+003,5.252671e-001
2.520548e+003,5.161185e-001
2.526333e+003,5.078524e-001
2.532119e+003,5.016396e-001
2.537904e+003,4.952419e-001
2.543689e+003,4.880345e-001
2.549475e+003,4.838322e-001
2.555260e+003,4.821301e-001
2.561046e+003,4.767907e-001
2.566832e+003,4.723390e-001
2.572617e+003,4.669596e-001
2.578403e+003,4.610259e-001
2.584188e+003,4.568902e-001
2.589973e+003,4.488558e-001
2.595759e+003,4.443415e-001
2.601544e+003,4.400229e-001
2.607330e+003,4.355984e-001
2.613115e+003,4.323483e-001
2.618901e+003,4.285621e-001
2.624687e+003,4.254269e-001
2.630472e+003,4.216974e-001
2.636258e+003,4.169884e-001
2.642043e+003,4.146549e-001
2.647828e+003,4.093584e-001
2.653614e+003,4.066643e-001
2.659399e+003,3.998555e-001
2.665185e+003,3.967888e-001
2.670970e+003,3.899612e-001
2.676756e+003,3.838426e-001
2.682542e+003,3.777432e-001
2.688327e+003,3.716181e-001
2.694112e+003,3.635319e-001
2.699898e+003,3.583644e-001
2.705683e+003,3.518902e-001
2.711469e+003,3.467427e-001
2.717254e+003,3.399432e-001
2.723040e+003,3.345373e-001
2.728825e+003,3.302005e-001
2.734611e+003,3.257632e-001
2.740396e+003,3.200370e-001
2.746182e+003,3.174118e-001
2.751967e+003,3.144268e-001
2.757753e+003,3.122420e-001
2.763538e+003,3.103620e-001
2.769324e+003,3.083449e-001
2.775109e+003,3.065217e-001
2.780895e+003,3.025732e-001
2.786680e+003,3.018435e-001
2.792466e+003,2.982753e-001
2.798251e+003,2.980682e-001
2.804037e+003,2.958598e-001
2.809822e+003,2.948118e-001
2.815608e+003,2.914609e-001
2.821393e+003,2.899615e-001
2.827179e+003,2.877423e-001
2.832964e+003,2.865679e-001
2.838750e+003,2.846976e-001
2.844535e+003,2.871405e-001
2.850321e+003,2.891917e-001
2.856106e+003,2.829352e-001
2.861892e+003,2.761212e-001
2.867677e+003,2.734877e-001
2.873463e+003,2.675237e-001
2.879248e+003,2.657351e-001
2.885034e+003,2.627630e-001
2.890819e+003,2.617887e-001
2.896605e+003,2.575981e-001
2.902390e+003,2.568069e-001
2.908176e+003,2.566948e-001
2.913961e+003,2.580680e-001
2.919747e+003,2.610138e-001
2.925532e+003,2.589184e-001
2.931318e+003,2.533084e-001
2.937103e+003,2.472998e-001
2.942889e+003,2.433680e-001
2.948674e+003,2.396645e-001
2.954460e+003,2.383839e-001
2.960245e+003,2.356539e-001
2.966031e+003,2.341253e-001
2.971816e+003,2.302207e-001
2.977602e+003,2.269990e-001
2.983387e+003,2.229034e-001
2.989173e+003,2.186552e-001
2.994958e+003,2.137921e-001
3.000744e+003,2.098963e-001
3.006529e+003,2.056983e-001
3.012315e+003,2.002023e-001
3.018100e+003,1.933243e-001
3.023886e+003,1.893130e-001
3.029671e+003,1.850258e-001
3.035457e+003,1.815219e-001
3.041242e+003,1.783087e-001
3.047028e+003,1.755065e-001
3.052813e+003,1.729997e-001
3.058599e+003,1.689993e-001
3.064384e+003,1.667534e-001
3.070170e+003,1.634590e-001
3.075955e+003,1.607933e-001
3.081741e+003,1.597173e-001
3.087526e+003,1.577256e-001
3.093312e+003,1.563059e-001
3.099097e+003,1.547091e-001
3.104883e+003,1.523806e-001
3.110668e+003,1.507748e-001
3.116454e+003,1.496644e-001
3.122239e+003,1.480188e-001
3.128025e+003,1.486076e-001
3.133810e+003,1.451473e-001
3.139595e+003,1.444916e-001
3.145381e+003,1.431812e-001
3.151167e+003,1.434381e-001
3.156952e+003,1.413897e-001
3.162738e+003,1.393109e-001
3.168523e+003,1.392271e-001
3.174309e+003,1.367361e-001
3.180094e+003,1.362800e-001
3.185880e+003,1.357553e-001
3.191665e+003,1.357965e-001
3.197450e+003,1.340602e-001
3.203236e+003,1.336223e-001
3.209021e+003,1.328203e-001
3.214807e+003,1.315433e-001
3.220593e+003,1.315458e-001
3.226378e+003,1.292285e-001
3.232164e+003,1.288931e-001
3.237949e+003,1.286096e-001
3.243734e+003,1.277745e-001
3.249520e+003,1.262148e-001
3.255305e+003,1.251068e-001
3.261091e+003,1.241013e-001
3.266876e+003,1.239669e-001
3.272662e+003,1.226630e-001
3.278448e+003,1.220357e-001
3.284233e+003,1.211032e-001
3.290019e+003,1.208838e-001
3.295804e+003,1.207083e-001
3.301589e+003,1.193579e-001
3.307375e+003,1.191229e-001
3.313160e+003,1.189899e-001
3.318946e+003,1.164580e-001
3.324731e+003,1.158183e-001
3.330517e+003,1.160592e-001
3.336302e+003,1.161117e-001
3.342088e+003,1.148984e-001
3.347873e+003,1.146571e-001
3.353659e+003,1.138754e-001
3.359444e+003,1.146264e-001
3.365230e+003,1.135381e-001
3.371015e+003,1.125825e-001
3.376801e+003,1.124578e-001
3.382586e+003,1.112586e-001
3.388372e+003,1.127485e-001
3.394157e+003,1.090092e-001
3.399943e+003,1.121324e-001
3.405728e+003,1.104809e-001
3.411514e+003,1.102194e-001
3.417299e+003,1.096749e-001
3.423085e+003,1.085476e-001
3.428870e+003,1.091477e-001
3.434656e+003,1.102708e-001
3.440441e+003,1.086207e-001
3.446227e+003,1.055483e-001
3.452012e+003,1.071432e-001
3.457798e+003,1.080464e-001
3.463583e+003,1.073429e-001
3.469369e+003,1.068971e-001
3.475154e+003,1.070084e-001
3.480940e+003,1.083971e-001
3.486725e+003,1.089838e-001
3.492511e+003,1.080614e-001
3.498296e+003,1.080369e-001
3.504082e+003,1.065286e-001
3.509867e+003,1.085930e-001
3.515653e+003,1.089249e-001
3.521438e+003,1.117108e-001
3.527224e+003,1.126793e-001
3.533009e+003,1.088105e-001
3.538795e+003,1.082115e-001
3.544580e+003,1.075977e-001
3.550366e+003,1.029286e-001
3.556151e+003,1.070459e-001
3.561937e+003,1.163763e-001
3.567722e+003,1.215989e-001
3.573508e+003,1.221279e-001
3.579293e+003,1.069582e-001
3.585079e+003,1.005245e-001
3.590864e+003,1.048716e-001
3.596650e+003,1.139227e-001
3.602435e+003,1.061319e-001
3.608221e+003,9.749518e-002
3.614006e+003,9.593994e-002
3.619792e+003,9.770310e-002
3.625577e+003,9.434487e-002
3.631363e+003,9.722929e-002
3.637148e+003,9.312390e-002
3.642934e+003,9.294677e-002
3.648719e+003,9.305866e-002
3.654505e+003,8.898255e-002
3.660290e+003,9.070146e-002
3.666076e+003,8.916426e-002
3.671861e+003,9.548469e-002
3.677647e+003,9.342545e-002
3.683432e+003,9.027252e-002
3.689218e+003,9.205299e-002
3.695003e+003,8.866342e-002
3.700789e+003,8.865009e-002
3.706574e+003,8.789595e-002
3.712360e+003,9.149256e-002
3.718145e+003,8.871504e-002
3.723931e+003,9.228835e-002
3.729716e+003,8.946120e-002
3.735502e+003,9.484356e-002
3.741287e+003,9.006063e-002
3.747073e+003,8.969915e-002
3.752858e+003,9.350829e-002
3.758644e+003,8.596393e-002
3.764429e+003,8.592774e-002
3.770215e+003,8.679467e-002
3.776000e+003,8.673887e-002
3.781786e+003,8.645304e-002
3.787571e+003,8.663033e-002
3.793356e+003,8.511832e-002
3.799142e+003,8.473907e-002
3.804927e+003,8.524705e-002
3.810713e+003,8.340655e-002
3.816499e+003,8.769377e-002
3.822284e+003,8.998635e-002
3.828070e+003,8.586281e-002
3.833855e+003,8.681040e-002
3.839641e+003,9.057826e-002
3.845426e+003,8.818144e-002
3.851211e+003,8.302197e-002
3.856997e+003,8.629276e-002
3.862782e+003,8.620086e-002
3.868568e+003,8.428676e-002
3.874354e+003,8.550013e-002
3.880139e+003,8.173545e-002
3.885925e+003,8.523898e-002
3.891710e+003,8.527341e-002
3.897495e+003,8.217747e-002
3.903281e+003,8.633075e-002
3.909066e+003,8.387567e-002
3.914852e+003,8.107080e-002
3.920637e+003,8.266979e-002
3.926423e+003,8.293649e-002
3.932208e+003,8.364587e-002
3.937994e+003,8.065376e-002
3.943780e+003,8.012762e-002
3.949565e+003,8.182157e-002
3.955350e+003,8.181841e-002
3.961136e+003,8.099645e-002
3.966921e+003,8.170386e-002
3.972707e+003,8.115119e-002
3.978492e+003,8.033344e-002
3.984278e+003,7.858170e-002
3.990063e+003,7.940642e-002
3.995849e+003,7.956036e-002
4.001634e+003,7.924529e-002
4.007420e+003,8.029015e-002
4.013205e+003,7.715451e-002
4.018991e+003,8.031394e-002
4.024776e+003,7.937825e-002
4.030562e+003,7.848784e-002
4.036347e+003,7.930041e-002
4.042133e+003,7.991748e-002
4.047918e+003,7.964004e-002
4.053704e+003,7.882925e-002
4.059489e+003,7.798346e-002
4.065275e+003,7.792930e-002
4.071060e+003,7.840615e-002
4.076846e+003,7.829083e-002
4.082631e+003,7.849971e-002
4.088417e+003,7.603572e-002
4.094202e+003,7.874916e-002
4.099988e+003,7.834035e-002
4.105773e+003,7.675213e-002
4.111559e+003,7.689149e-002
4.117344e+003,7.604002e-002
4.123130e+003,7.670236e-002
4.128916e+003,7.719970e-002
4.134701e+003,7.700585e-002
4.140486e+003,7.654393e-002
4.146272e+003,7.633357e-002
4.152057e+003,7.852162e-002
4.157843e+003,7.745618e-002
4.163628e+003,7.644526e-002
4.169414e+003,7.708886e-002
4.175199e+003,7.702871e-002
4.180985e+003,7.631990e-002
4.186770e+003,7.732583e-002
4.192556e+003,7.668789e-002
4.198341e+003,7.744648e-002
4.204127e+003,7.799869e-002
4.209912e+003,7.595485e-002
4.215698e+003,7.492575e-002
4.221483e+003,7.649694e-002
4.227269e+003,7.680978e-002
4.233054e+003,7.555279e-002
4.238840e+003,7.826801e-002
4.244625e+003,7.651374e-002
4.250411e+003,7.629558e-002
4.256196e+003,7.664582e-002
4.261982e+003,7.801487e-002
4.267767e+003,7.587935e-002
4.273553e+003,7.769894e-002
4.279338e+003,7.477478e-002
4.285124e+003,7.601453e-002
4.290909e+003,7.733283e-002
4.296695e+003,7.796994e-002
4.302480e+003,7.648861e-002
4.308266e+003,7.682635e-002
4.314051e+003,7.365915e-002
4.319836e+003,7.497667e-002
4.325622e+003,7.651211e-002
4.331408e+003,7.771768e-002
4.337193e+003,7.472987e-002
4.342979e+003,7.628665e-002
4.348764e+003,7.524073e-002
4.354550e+003,7.693369e-002
4.360335e+003,7.567200e-002
4.366121e+003,7.632117e-002
4.371906e+003,7.559727e-002
4.377691e+003,7.766462e-002
4.383477e+003,7.431417e-002
4.389263e+003,7.655650e-002
4.395048e+003,7.761934e-002
4.400833e+003,7.591676e-002
4.406619e+003,7.539131e-002
4.412405e+003,7.683094e-002
4.418190e+003,7.651567e-002
4.423976e+003,7.573847e-002
4.429761e+003,7.653432e-002
4.435546e+003,7.640843e-002
4.441332e+003,7.909806e-002
4.447118e+003,7.425071e-002
4.452903e+003,7.580849e-002
4.458688e+003,7.527225e-002
4.464474e+003,7.510147e-002
4.470260e+003,7.302928e-002
4.476045e+003,7.731806e-002
4.481831e+003,7.657373e-002
4.487616e+003,7.579520e-002
4.493401e+003,7.480080e-002
4.499187e+003,7.656396e-002
4.504973e+003,7.798326e-002
4.510758e+003,7.690834e-002
4.516543e+003,7.716143e-002
4.522329e+003,7.412886e-002
4.528114e+003,7.499859e-002
4.533900e+003,7.738605e-002
4.539686e+003,7.668369e-002
4.545471e+003,7.726324e-002
4.551256e+003,7.546712e-002
4.557042e+003,7.682453e-002
4.562828e+003,7.746549e-002
4.568613e+003,7.543424e-002
4.574398e+003,7.799377e-002
4.580184e+003,7.690102e-002
4.585969e+003,7.485721e-002
4.591755e+003,7.647221e-002
4.597541e+003,7.470378e-002
4.603326e+003,7.790837e-002
4.609111e+003,7.656432e-002
4.614897e+003,7.746850e-002
4.620683e+003,7.905751e-002
4.626468e+003,7.654369e-002
4.632253e+003,7.615148e-002
4.638039e+003,7.704683e-002
4.643824e+003,7.724717e-002
4.649610e+003,7.405172e-002
4.655396e+003,7.517187e-002
4.661181e+003,7.563970e-002
4.666966e+003,7.614855e-002
4.672752e+003,7.673462e-002
4.678538e+003,7.924533e-002
4.684323e+003,8.002725e-002
4.690108e+003,7.770381e-002
4.695894e+003,7.543558e-002
4.701679e+003,7.781933e-002
4.707465e+003,7.738771e-002
4.713250e+003,7.572324e-002
4.719036e+003,7.629633e-002
4.724821e+003,7.760535e-002
4.730607e+003,7.406457e-002
4.736392e+003,7.614638e-002
4.742178e+003,7.491776e-002
4.747963e+003,7.907306e-002
4.753749e+003,7.611365e-002
4.759534e+003,7.780455e-002
4.765320e+003,7.901026e-002
4.771105e+003,7.678609e-002
4.776891e+003,7.578399e-002
4.782676e+003,7.732416e-002
4.788462e+003,7.734309e-002
4.794247e+003,7.673889e-002
4.800033e+003,7.450718e-002
4.805818e+003,7.660985e-002
4.811604e+003,7.793445e-002
4.817389e+003,7.661566e-002
4.823175e+003,7.587817e-002
4.828960e+003,7.514547e-002
4.834746e+003,7.551056e-002
4.840531e+003,7.638264e-002
4.846317e+003,7.841068e-002
4.852102e+003,7.675201e-002
4.857888e+003,7.381241e-002
4.863673e+003,7.607800e-002
4.869458e+003,7.570983e-002
4.875244e+003,7.634056e-002
4.881030e+003,7.460061e-002
4.886815e+003,7.469761e-002
4.892601e+003,7.468671e-002
4.898386e+003,7.496895e-002
4.904172e+003,7.657392e-002
4.909957e+003,7.680001e-002
4.915743e+003,7.739840e-002
4.921528e+003,7.796657e-002
4.927313e+003,7.594167e-002
4.933099e+003,7.770187e-002
4.938885e+003,7.485225e-002
4.944670e+003,7.543396e-002
4.950456e+003,7.720790e-002
4.956241e+003,7.373901e-002
4.962027e+003,7.868522e-002
4.967812e+003,7.534027e-002
4.973598e+003,7.803188e-002
4.979383e+003,7.571661e-002
4.985168e+003,7.674845e-002
4.990954e+003,7.506823e-002
4.996740e+003,7.790864e-002
5.002525e+003,7.632975e-002
5.008311e+003,7.806003e-002
5.014096e+003,7.642756e-002
5.019882e+003,7.842560e-002
5.025667e+003,7.692847e-002
5.031453e+003,7.746445e-002
5.037238e+003,7.636249e-002
5.043023e+003,7.664444e-002
5.048809e+003,7.821013e-002
5.054595e+003,7.764509e-002
5.060380e+003,8.010857e-002
5.066166e+003,7.729637e-002
5.071951e+003,7.664539e-002
5.077736e+003,7.544240e-002
5.083522e+003,7.393339e-002
5.089308e+003,7.776947e-002
5.095093e+003,7.984611e-002
5.100878e+003,7.722738e-002
5.106664e+003,7.657044e-002
5.112450e+003,7.945555e-002
5.118235e+003,7.667915e-002
5.124021e+003,7.501238e-002
5.129806e+003,7.958376e-002
5.135591e+003,7.862370e-002
5.141377e+003,7.873364e-002
5.147163e+003,7.770294e-002
5.152948e+003,7.755199e-002
5.158733e+003,8.054023e-002
5.164519e+003,7.556154e-002
5.170305e+003,7.728501e-002
5.176090e+003,7.415724e-002
5.181875e+003,8.005757e-002
5.187661e+003,8.012455e-002
5.193446e+003,7.810655e-002
5.199232e+003,7.882615e-002
5.205018e+003,7.849320e-002
5.210803e+003,8.213051e-002
5.216588e+003,7.961723e-002
5.222374e+003,8.005542e-002
5.228160e+003,8.128917e-002
5.233945e+003,7.764129e-002
5.239730e+003,8.216310e-002
5.245516e+003,7.982926e-002
5.251301e+003,8.462950e-002
5.257087e+003,8.048153e-002
5.262873e+003,8.371887e-002
5.268658e+003,8.062939e-002
5.274443e+003,8.066227e-002
5.280229e+003,7.779611e-002
5.286014e+003,7.829975e-002
5.291800e+003,8.143583e-002
5.297585e+003,7.975238e-002
5.303371e+003,8.005590e-002
5.309156e+003,7.931366e-002
5.314942e+003,7.903629e-002
5.320728e+003,8.223008e-002
5.326513e+003,8.111653e-002
5.332298e+003,7.531686e-002
5.338084e+003,8.671872e-002
5.343869e+003,7.787745e-002
5.349655e+003,7.966997e-002
5.355440e+003,8.488319e-002
5.361226e+003,7.986876e-002
5.367011e+003,8.230592e-002
5.372797e+003,7.848217e-002
5.378583e+003,8.348995e-002
5.384368e+003,8.140577e-002
5.390153e+003,8.258229e-002
5.395939e+003,8.299281e-002
5.401724e+003,8.006869e-002
5.407510e+003,8.191199e-002
5.413295e+003,8.762453e-002
5.419081e+003,7.982595e-002
5.424866e+003,8.169354e-002
5.430652e+003,8.149051e-002
5.436438e+003,8.446912e-002
5.442223e+003,8.508817e-002
5.448008e+003,8.039268e-002
5.453794e+003,8.333132e-002
5.459579e+003,8.250400e-002
5.465365e+003,8.581912e-002
5.471150e+003,8.215296e-002
5.476936e+003,8.373771e-002
5.482721e+003,8.176961e-002
5.488507e+003,8.449794e-002
5.494292e+003,8.365671e-002
5.500078e+003,8.613172e-002
5.505863e+003,8.440847e-002
5.511649e+003,7.937428e-002
5.517434e+003,9.019005e-002
5.523220e+003,8.616784e-002
5.529005e+003,8.304174e-002
5.534791e+003,8.337792e-002
5.540576e+003,8.083976e-002
5.546362e+003,8.424673e-002
5.552147e+003,8.325381e-002
5.557933e+003,8.404608e-002
5.563718e+003,8.311620e-002
5.569504e+003,8.695756e-002
5.575289e+003,8.695842e-002
5.581075e+003,8.351135e-002
5.586860e+003,8.516629e-002
5.592646e+003,8.659802e-002
5.598431e+003,8.947903e-002
5.604217e+003,8.637202e-002
5.610002e+003,8.289944e-002
5.615788e+003,8.606724e-002
5.621573e+003,8.547693e-002
5.627358e+003,8.603073e-002
5.633144e+003,8.955851e-002
5.638930e+003,8.839963e-002
5.644715e+003,9.059810e-002
5.650500e+003,8.673041e-002
5.656286e+003,8.863014e-002
5.662072e+003,9.129169e-002
5.667857e+003,9.116484e-002
5.673643e+003,8.673454e-002
5.679428e+003,9.062847e-002
5.685213e+003,8.919302e-002
5.690999e+003,9.106892e-002
5.696785e+003,9.048667e-002
5.702570e+003,9.531505e-002
5.708355e+003,8.724789e-002
5.714141e+003,9.567574e-002
5.719927e+003,9.376298e-002
5.725712e+003,8.905259e-002
5.731498e+003,1.003234e-001
5.737283e+003,9.300681e-002
5.743068e+003,9.415432e-002
5.748854e+003,9.124725e-002
5.754640e+003,9.835295e-002
5.760425e+003,9.435949e-002
5.766210e+003,9.202800e-002
5.771996e+003,9.331051e-002
5.777782e+003,9.546116e-002
5.783567e+003,1.006428e-001
5.789353e+003,9.743804e-002
5.795138e+003,9.831750e-002
5.800923e+003,9.563370e-002
5.806709e+003,1.011631e-001
5.812495e+003,9.701991e-002
5.818280e+003,9.493578e-002
5.824065e+003,9.688185e-002
5.829851e+003,9.775949e-002
5.835637e+003,9.993393e-002
5.841422e+003,1.023875e-001
5.847208e+003,1.029715e-001
5.852993e+003,1.032177e-001
5.858778e+003,1.064242e-001
5.864564e+003,1.061382e-001
5.870350e+003,1.049634e-001
5.876135e+003,1.067820e-001
5.881920e+003,1.041019e-001
5.887706e+003,1.056499e-001
5.893491e+003,1.083597e-001
5.899277e+003,1.052149e-001
5.905063e+003,1.100547e-001
5.910848e+003,1.109816e-001
5.916633e+003,1.074003e-001
5.922419e+003,1.117716e-001
5.928205e+003,1.159988e-001
5.933990e+003,1.098290e-001
5.939775e+003,1.150857e-001
5.945561e+003,1.180877e-001
5.951346e+003,1.149815e-001
5.957132e+003,1.138697e-001
5.962917e+003,1.114997e-001
5.968703e+003,1.188678e-001
5.974488e+003,1.160738e-001
5.980274e+003,1.144382e-001
5.986060e+003,1.156322e-001
5.991845e+003,1.253813e-001
5.997630e+003,1.267478e-001
6.003416e+003,1.164934e-001
6.009201e+003,1.233509e-001
6.014987e+003,1.251627e-001
6.020772e+003,1.217401e-001
6.026558e+003,1.247007e-001
6.032343e+003,1.292130e-001
6.038129e+003,1.274272e-001
6.043915e+003,1.272896e-001
6.049700e+003,1.306454e-001
6.055485e+003,1.333269e-001
6.061271e+003,1.316871e-001
6.067056e+003,1.336773e-001
6.072842e+003,1.352635e-001
6.078627e+003,1.294198e-001
6.084413e+003,1.454800e-001
6.090198e+003,1.432679e-001
6.095984e+003,1.423915e-001
6.101769e+003,1.487085e-001
6.107555e+003,1.433846e-001
6.113340e+003,1.465730e-001
6.119126e+003,1.483480e-001
6.124911e+003,1.497937e-001
6.130697e+003,1.504226e-001
6.136482e+003,1.519041e-001
6.142268e+003,1.583991e-001
6.148053e+003,1.606437e-001
6.153839e+003,1.579348e-001
6.159624e+003,1.569805e-001
6.165410e+003,1.685383e-001
6.171195e+003,1.732123e-001
6.176981e+003,1.571222e-001
6.182766e+003,1.692115e-001
6.188552e+003,1.676974e-001
6.194337e+003,1.720108e-001
6.200123e+003,1.755889e-001
6.205908e+003,1.716754e-001
6.211694e+003,1.796118e-001
6.217479e+003,1.785013e-001
6.223265e+003,1.765751e-001
6.229050e+003,1.809331e-001
6.234835e+003,1.888582e-001
6.240621e+003,1.820054e-001
6.246407e+003,1.902117e-001
6.252192e+003,1.875808e-001
6.257978e+003,1.947243e-001
6.263763e+003,1.899183e-001
6.269549e+003,1.989766e-001
6.275334e+003,1.986565e-001
6.281120e+003,2.075177e-001
6.286905e+003,2.032577e-001
6.292690e+003,2.121616e-001
6.298476e+003,2.096370e-001
6.304262e+003,2.116261e-001
6.310047e+003,2.139276e-001
6.315833e+003,2.205110e-001
6.321618e+003,2.245575e-001
6.327404e+003,2.327458e-001
6.333189e+003,2.254610e-001
6.338975e+003,2.254355e-001
6.344760e+003,2.170627e-001
6.350545e+003,2.387199e-001
6.356331e+003,2.323137e-001
6.362117e+003,2.358031e-001
6.367902e+003,2.478658e-001
6.373688e+003,2.430674e-001
6.379473e+003,2.499200e-001
6.385259e+003,2.438467e-001
6.391044e+003,2.453491e-001
6.396830e+003,2.598377e-001
6.402615e+003,2.615811e-001
6.408400e+003,2.604470e-001
6.414186e+003,2.693127e-001
6.419972e+003,2.859351e-001
6.425757e+003,2.800612e-001
6.431542e+003,2.887703e-001
6.437328e+003,2.885212e-001
6.443113e+003,2.923360e-001
6.448899e+003,2.910695e-001
6.454685e+003,3.075978e-001
6.460470e+003,3.106956e-001
6.466255e+003,2.924576e-001
6.472041e+003,3.037789e-001
6.477827e+003,3.014213e-001
6.483612e+003,3.225298e-001
6.489397e+003,3.079679e-001
6.495183e+003,3.264761e-001
6.500968e+003,3.221496e-001
6.506754e+003,3.337381e-001
6.512540e+003,3.375165e-001
6.518325e+003,3.396118e-001
6.524110e+003,3.450125e-001
6.529896e+003,3.561841e-001
6.535682e+003,3.624146e-001
6.541467e+003,3.691886e-001
6.547252e+003,3.599127e-001
6.553038e+003,3.733147e-001
6.558823e+003,3.723315e-001
6.564609e+003,3.818130e-001
6.570395e+003,3.774943e-001
6.576180e+003,3.955346e-001
6.581965e+003,3.840818e-001
6.587751e+003,3.937610e-001
6.593537e+003,3.980608e-001
6.599322e+003,4.029941e-001
6.605107e+003,4.086342e-001
6.610893e+003,4.047807e-001
6.616678e+003,4.259509e-001
6.622464e+003,4.311274e-001
6.628250e+003,4.442244e-001
6.634035e+003,4.735982e-001
6.639820e+003,4.256717e-001
6.645606e+003,4.636688e-001
6.651391e+003,4.290484e-001
6.657177e+003,4.683171e-001
6.662962e+003,4.803382e-001
6.668748e+003,4.490650e-001
6.674533e+003,4.929785e-001
6.680319e+003,4.769457e-001
6.686104e+003,4.915354e-001
6.691890e+003,5.077713e-001
6.697675e+003,5.103813e-001
6.703461e+003,4.987213e-001
6.709246e+003,5.267671e-001
6.715032e+003,5.021463e-001
6.720817e+003,5.720770e-001
6.726603e+003,5.339866e-001
6.732388e+003,5.389995e-001
6.738174e+003,5.507515e-001
6.743959e+003,5.600801e-001
6.749745e+003,5.456838e-001
6.755530e+003,5.842707e-001
6.761316e+003,5.661609e-001
6.767101e+003,5.756544e-001
6.772887e+003,5.576064e-001
6.778672e+003,6.014668e-001
6.784458e+003,5.961944e-001
6.790243e+003,6.005946e-001
6.796029e+003,6.113793e-001
6.801814e+003,5.879375e-001
6.807600e+003,6.849505e-001
6.813385e+003,6.704379e-001
6.819171e+003,6.343089e-001
6.824956e+003,6.537925e-001
6.830742e+003,6.310303e-001
6.836527e+003,6.272274e-001
6.842313e+003,6.524007e-001
6.848098e+003,6.771324e-001
6.853884e+003,7.320402e-001
6.859669e+003,7.178474e-001
6.865455e+003,6.670948e-001
6.871240e+003,7.318547e-001
6.877026e+003,7.549140e-001
6.882811e+003,7.046477e-001
6.888597e+003,6.882219e-001
6.894382e+003,7.253711e-001
6.900167e+003,7.109913e-001
6.905953e+003,7.466452e-001
6.911739e+003,7.154503e-001
6.917524e+003,7.208535e-001
6.923310e+003,7.825673e-001
6.929095e+003,8.019202e-001
6.934881e+003,7.423766e-001
6.940666e+003,9.165192e-001
6.946452e+003,8.300739e-001
6.952237e+003,8.422900e-001
6.958022e+003,7.739674e-001
6.963808e+003,8.288316e-001
6.969594e+003,8.259917e-001
6.975379e+003,9.100084e-001
6.981165e+003,8.955943e-001
6.986950e+003,8.884606e-001
6.992735e+003,9.082558e-001
6.998521e+003,8.462605e-001
7.004307e+003,9.413352e-001
7.010092e+003,9.199678e-001
7.015877e+003,8.925604e-001
7.021663e+003,9.392334e-001
7.027449e+003,8.810204e-001
7.033234e+003,1.014258e+000
7.039020e+003,1.069166e+000
7.044805e+003,9.467949e-001
7.050590e+003,9.479626e-001
7.056376e+003,1.074369e+000
7.062162e+003,9.178966e-001
7.067947e+003,9.247749e-001
7.073732e+003,9.792368e-001
7.079518e+003,1.012050e+000
7.085304e+003,1.037300e+000
7.091089e+003,9.538710e-001
7.096875e+003,1.080004e+000
7.102660e+003,9.355144e-001
7.108445e+003,9.478626e-001
7.114231e+003,1.019084e+000
7.120017e+003,1.011155e+000
7.125802e+003,1.126993e+000
7.131587e+003,1.088947e+000
7.137373e+003,1.172899e+000
7.143159e+003,1.275333e+000
7.148944e+003,1.248937e+000
7.154729e+003,1.032879e+000
7.160515e+003,1.048811e+000
7.166300e+003,1.119333e+000
7.172086e+003,1.039118e+000
7.177872e+003,1.213315e+000
7.183657e+003,1.325403e+000
7.189442e+003,1.449074e+000
7.195228e+003,1.086878e+000
7.201013e+003,9.887384e-001
7.206799e+003,1.218765e+000
7.212584e+003,1.259201e+000
7.218370e+003,1.097419e+000
7.224155e+003,1.092453e+000
7.229941e+003,1.342380e+000
7.235727e+003,1.196786e+000
7.241512e+003,1.155898e+000
7.247297e+003,1.027204e+000
7.253083e+003,1.454205e+000
7.258868e+003,1.062973e+000
7.264654e+003,1.395097e+000
7.270439e+003,1.283974e+000
7.276225e+003,1.407289e+000
7.282010e+003,1.255872e+000
7.287796e+003,1.574363e+000
7.293582e+003,1.203898e+000
7.299367e+003,1.046080e+000
7.305152e+003,1.548658e+000
7.310938e+003,1.271515e+000
7.316723e+003,1.343648e+000
7.322509e+003,1.148904e+000
7.328294e+003,1.307402e+000
7.334080e+003,1.411117e+000
7.339865e+003,1.534597e+000
7.345651e+003,1.635507e+000
7.351437e+003,1.322412e+000
7.357222e+003,6.000000e+000
7.363007e+003,1.360555e+000
7.368793e+003,1.629177e+000
7.374578e+003,1.201882e+000
7.380364e+003,1.081790e+000
7.386149e+003,1.297692e+000
7.391935e+003,1.492046e+000
7.397720e+003,1.272261e+000
7.403506e+003,6.000000e+000
7.409291e+003,1.579611e+000
7.415077e+003,1.246042e+000
7.420862e+003,1.244988e+000
7.426648e+003,1.283637e+000
7.432433e+003,2.409861e+000
7.438219e+003,1.218026e+000
7.444004e+003,1.814489e+000
7.449790e+003,1.206495e+000
7.455575e+003,2.189547e+000
7.461361e+003,1.607912e+000
7.467146e+003,1.229079e+000
7.472932e+003,1.480950e+000
7.478717e+003,1.387585e+000
7.484503e+003,1.471026e+000
7.490288e+003,1.239399e+000
7.496074e+003,1.440009e+000
7.501859e+003,1.574000e+000
7.507645e+003,2.026252e+000
7.513430e+003,1.427273e+000
7.519216e+003,1.459288e+000
7.525001e+003,1.426504e+000
7.530787e+003,1.486134e+000
7.536572e+003,1.772996e+000
7.542357e+003,1.487136e+000
7.548143e+003,1.239854e+000
7.553929e+003,2.080381e+000
7.559714e+003,1.538446e+000
7.565500e+003,1.469517e+000
7.571285e+003,1.704209e+000
7.577071e+003,1.119212e+000
7.582856e+003,1.687186e+000
7.588642e+003,1.320327e+000
7.594427e+003,2.117740e+000
7.600212e+003,6.000000e+000
7.605998e+003,1.452592e+000
7.611784e+003,1.666629e+000
7.617569e+003,2.304864e+000
7.623354e+003,1.363853e+000
7.629140e+003,1.534773e+000
7.634926e+003,1.259645e+000
7.640711e+003,6.000000e+000
7.646497e+003,6.000000e+000
7.652282e+003,1.208512e+000
7.658067e+003,6.000000e+000
7.663853e+003,3.338084e+000
7.669639e+003,1.171690e+000
7.675424e+003,1.139390e+000
7.681209e+003,6.000000e+000
7.686995e+003,6.000000e+000
7.692781e+003,6.000000e+000
7.698566e+003,6.000000e+000
7.704352e+003,1.937052e+000
7.710137e+003,1.044206e+000
7.715922e+003,2.405167e+000
7.721708e+003,6.000000e+000
7.727494e+003,1.092591e+000
7.733279e+003,1.403673e+000
7.739064e+003,1.292889e+000
7.744850e+003,1.243639e+000
7.750635e+003,1.462238e+000
7.756421e+003,1.316378e+000
7.762207e+003,1.223589e+000
7.767992e+003,2.807872e+000
7.773777e+003,3.134976e+000
7.779563e+003,6.000000e+000
7.785349e+003,1.095127e+000
7.791134e+003,1.388542e+000
7.796919e+003,1.328142e+000
7.802705e+003,1.314850e+000
7.808490e+003,1.526904e+000
7.814276e+003,6.000000e+000
7.820062e+003,1.313408e+000
7.825847e+003,6.000000e+000
7.831632e+003,1.523986e+000
7.837418e+003,6.000000e+000
7.843204e+003,1.426224e+000
7.848989e+003,1.734257e+000
7.854774e+003,1.460314e+000
7.860560e+003,6.000000e+000
7.866345e+003,1.681783e+000
7.872131e+003,6.000000e+000
7.877917e+003,1.388624e+000
7.883702e+003,6.000000e+000
7.889487e+003,2.103853e+000
7.895273e+003,1.138531e+000
7.901059e+003,6.000000e+000
7.906844e+003,2.028999e+000
7.912629e+003,1.362643e+000
7.918415e+003,1.400519e+000
7.924200e+003,1.414515e+000
7.929986e+003,9.649321e-001
7.935771e+003,2.115605e+000
7.941557e+003,1.295214e+000
7.947342e+003,1.788293e+000
7.953128e+003,1.407238e+000
7.958914e+003,6.000000e+000
7.964699e+003,9.440007e-001
7.970484e+003,1.337725e+000
7.976270e+003,1.036293e+000
7.982055e+003,1.122295e+000
7.987841e+003,6.000000e+000
7.993626e+003,6.000000e+000
7.999412e+003,1.868003e+000
8.005197e+003,6.000000e+000
8.010983e+003,1.943851e+000
8.016768e+003,2.527355e+000
8.022554e+003,6.000000e+000
8.028339e+003,1.697014e+000
8.034125e+003,6.000000e+000
8.039910e+003,6.000000e+000
8.045696e+003,8.734623e-001
8.051481e+003,8.588179e-001
8.057267e+003,1.237528e+000
8.063052e+003,6.000000e+000
8.068838e+003,3.205450e+000
8.074623e+003,1.065993e+000
8.080409e+003,6.000000e+000
8.086194e+003,9.319315e-001
8.091979e+003,7.524993e-001
8.097765e+003,2.578125e+000
8.103551e+003,1.036609e+000
8.109336e+003,1.178002e+000
8.115122e+003,6.000000e+000
8.120907e+003,1.180729e+000
8.126693e+003,6.000000e+000
8.132478e+003,1.197321e+000
8.138264e+003,9.778772e-001
8.144049e+003,2.076179e+000
8.149834e+003,6.000000e+000
8.155620e+003,1.648372e+000
8.161406e+003,1.963924e+000
8.167191e+003,6.000000e+000
8.172977e+003,6.000000e+000
8.178762e+003,6.000000e+000
8.184548e+003,1.591321e+000
8.190333e+003,7.258170e-001
8.196118e+003,7.625087e-001
8.201904e+003,6.000000e+000
8.207689e+003,1.545994e+000
8.213476e+003,1.334191e+000
8.219261e+003,1.033212e+000
8.225046e+003,6.000000e+000
8.230832e+003,1.210997e+000
8.236617e+003,1.470899e+000
8.242402e+003,4.579928e-001
8.248188e+003,7.292511e-001
8.253974e+003,6.000000e+000
8.259759e+003,6.000000e+000
8.265545e+003,1.494884e+000
8.271330e+003,1.130037e+000
8.277115e+003,8.318933e-001
8.282901e+003,6.000000e+000
8.288687e+003,1.930886e+000
8.294472e+003,6.000000e+000
8.300258e+003,1.096101e+000
8.306043e+003,1.500615e+000
8.311828e+003,7.721781e-001
8.317614e+003,1.237473e+000
8.323399e+003,6.000000e+000
8.329185e+003,6.000000e+000
8.334971e+003,6.000000e+000
8.340756e+003,6.000000e+000
8.346542e+003,6.922822e-001
8.352327e+003,8.939089e-001
8.358112e+003,8.943491e-001
8.363898e+003,4.668785e-001
8.369684e+003,7.941092e-001
8.375469e+003,6.000000e+000
8.381255e+003,6.000000e+000
8.387040e+003,1.853941e+000
8.392825e+003,1.101737e+000
8.398611e+003,6.000000e+000
8.404396e+003,1.467341e+000
8.410182e+003,6.000000e+000
8.415968e+003,6.000000e+000
8.421753e+003,6.000000e+000
8.427538e+003,2.291833e+000
8.433324e+003,1.554633e+000
8.439109e+003,6.000000e+000
8.444895e+003,6.000000e+000
8.450681e+003,9.802817e-001
8.456466e+003,1.381318e+000
8.462251e+003,6.000000e+000
8.468037e+003,6.000000e+000
8.473822e+003,8.387242e-001
8.479608e+003,6.000000e+000
8.485394e+003,6.000000e+000
8.491179e+003,3.152683e-001
8.496965e+003,5.726429e-001
8.500821e+003,6.000000e+000