File: olivine/FTIR/SC1-2-800C-7hr-c06-copper.CSV
4.493401e+002,6.000000e+000
4.551256e+002,1.090081e+000
4.609111e+002,2.880240e-001
4.666966e+002,5.654171e-001
4.724821e+002,2.722737e-001
4.782676e+002,1.198261e+000
4.840531e+002,3.365038e-001
4.898386e+002,1.629261e-001
4.956241e+002,4.700787e-001
5.014096e+002,4.251246e-001
5.071951e+002,6.830400e-001
5.129806e+002,7.648479e-001
5.187661e+002,5.866352e-001
5.245516e+002,1.238283e+000
5.303371e+002,5.951678e-001
5.361226e+002,6.727836e-001
5.419081e+002,1.162178e+000
5.476935e+002,1.271284e+000
5.534791e+002,1.035805e+000
5.592646e+002,6.000000e+000
5.650500e+002,1.381440e+000
5.708356e+002,1.570586e+000
5.766210e+002,1.502397e+000
5.824066e+002,2.114174e+000
5.881920e+002,1.480963e+000
5.939775e+002,2.165730e+000
5.997631e+002,1.799406e+000
6.055485e+002,1.813312e+000
6.113340e+002,1.751281e+000
6.171195e+002,1.570102e+000
6.229050e+002,2.445632e+000
6.286905e+002,1.749517e+000
6.344760e+002,1.798480e+000
6.402615e+002,1.966298e+000
6.460470e+002,1.881731e+000
6.518325e+002,1.738988e+000
6.576180e+002,1.907076e+000
6.634035e+002,1.933793e+000
6.691890e+002,1.807181e+000
6.749745e+002,1.913005e+000
6.807599e+002,2.009442e+000
6.865455e+002,2.042318e+000
6.923309e+002,1.912806e+000
6.981165e+002,1.950660e+000
7.039020e+002,2.026659e+000
7.096874e+002,1.920932e+000
7.154730e+002,1.985541e+000
7.212584e+002,2.008254e+000
7.270439e+002,1.950015e+000
7.328294e+002,1.908824e+000
7.386149e+002,2.002292e+000
7.444004e+002,2.034554e+000
7.501859e+002,1.938249e+000
7.559714e+002,1.950931e+000
7.617569e+002,1.943277e+000
7.675424e+002,1.938619e+000
7.733279e+002,2.021501e+000
7.791134e+002,2.045437e+000
7.848989e+002,1.962142e+000
7.906844e+002,2.003341e+000
7.964699e+002,1.955995e+000
8.022554e+002,1.950502e+000
8.080409e+002,2.003429e+000
8.138264e+002,2.023478e+000
8.196119e+002,2.018959e+000
8.253973e+002,2.025522e+000
8.311829e+002,2.074447e+000
8.369683e+002,1.990904e+000
8.427538e+002,2.140887e+000
8.485394e+002,2.050222e+000
8.543248e+002,2.027602e+000
8.601104e+002,2.042912e+000
8.658958e+002,2.033367e+000
8.716813e+002,2.003858e+000
8.774668e+002,2.050922e+000
8.832523e+002,1.991838e+000
8.890378e+002,1.992055e+000
8.948233e+002,2.004247e+000
9.006088e+002,2.020025e+000
9.063943e+002,2.056541e+000
9.121798e+002,2.063975e+000
9.179653e+002,2.033121e+000
9.237508e+002,2.106106e+000
9.295363e+002,2.155926e+000
9.353218e+002,2.085062e+000
9.411072e+002,2.043844e+000
9.468928e+002,1.997172e+000
9.526783e+002,2.022485e+000
9.584637e+002,2.150034e+000
9.642493e+002,2.029177e+000
9.700347e+002,2.115749e+000
9.758203e+002,2.064643e+000
9.816057e+002,1.998719e+000
9.873912e+002,1.977049e+000
9.931768e+002,2.061267e+000
9.989622e+002,2.155017e+000
1.004748e+003,2.073206e+000
1.010533e+003,2.094147e+000
1.016319e+003,2.022312e+000
1.022104e+003,2.002154e+000
1.027890e+003,2.005543e+000
1.033675e+003,2.095139e+000
1.039461e+003,2.107758e+000
1.045246e+003,2.150826e+000
1.051032e+003,2.120745e+000
1.056817e+003,2.137022e+000
1.062603e+003,2.130928e+000
1.068388e+003,2.080419e+000
1.074174e+003,2.199458e+000
1.079959e+003,2.126875e+000
1.085745e+003,2.165020e+000
1.091530e+003,2.114600e+000
1.097316e+003,2.118014e+000
1.103101e+003,2.110709e+000
1.108887e+003,2.125331e+000
1.114672e+003,2.121150e+000
1.120458e+003,2.164485e+000
1.126243e+003,2.214608e+000
1.132029e+003,2.168926e+000
1.137814e+003,2.151785e+000
1.143600e+003,2.134241e+000
1.149385e+003,2.116176e+000
1.155171e+003,2.208176e+000
1.160956e+003,2.246939e+000
1.166742e+003,2.159022e+000
1.172527e+003,2.184092e+000
1.178313e+003,2.229749e+000
1.184098e+003,2.208387e+000
1.189884e+003,2.186613e+000
1.195669e+003,2.174716e+000
1.201455e+003,2.134837e+000
1.207240e+003,2.138056e+000
1.213026e+003,2.229752e+000
1.218811e+003,2.123702e+000
1.224597e+003,2.185841e+000
1.230382e+003,2.142984e+000
1.236167e+003,2.162126e+000
1.241953e+003,2.094714e+000
1.247739e+003,2.121825e+000
1.253524e+003,2.115805e+000
1.259310e+003,2.086754e+000
1.265095e+003,2.161854e+000
1.270880e+003,2.115459e+000
1.276666e+003,2.146801e+000
1.282452e+003,2.246376e+000
1.288237e+003,2.192757e+000
1.294022e+003,2.189819e+000
1.299808e+003,2.135810e+000
1.305594e+003,2.206401e+000
1.311379e+003,2.186528e+000
1.317164e+003,2.173090e+000
1.322950e+003,2.120944e+000
1.328735e+003,2.144541e+000
1.334521e+003,2.158818e+000
1.340307e+003,2.145988e+000
1.346092e+003,2.124610e+000
1.351877e+003,2.208879e+000
1.357663e+003,2.080781e+000
1.363448e+003,2.105068e+000
1.369234e+003,2.113602e+000
1.375019e+003,2.090136e+000
1.380805e+003,2.124777e+000
1.386590e+003,2.108273e+000
1.392376e+003,2.117337e+000
1.398161e+003,2.108482e+000
1.403947e+003,2.179931e+000
1.409732e+003,2.132118e+000
1.415518e+003,2.127415e+000
1.421303e+003,2.179975e+000
1.427089e+003,2.104925e+000
1.432874e+003,2.089048e+000
1.438660e+003,2.112873e+000
1.444445e+003,2.132012e+000
1.450231e+003,2.098973e+000
1.456016e+003,2.130650e+000
1.461802e+003,2.087485e+000
1.467587e+003,2.131426e+000
1.473373e+003,2.209911e+000
1.479158e+003,2.148726e+000
1.484944e+003,2.125853e+000
1.490729e+003,2.051702e+000
1.496515e+003,2.020888e+000
1.502300e+003,2.051452e+000
1.508086e+003,2.021682e+000
1.513871e+003,2.208696e+000
1.519657e+003,2.079067e+000
1.525442e+003,2.013738e+000
1.531228e+003,2.077753e+000
1.537013e+003,2.089190e+000
1.542799e+003,2.046533e+000
1.548584e+003,2.078891e+000
1.554370e+003,2.042081e+000
1.560155e+003,2.016123e+000
1.565941e+003,2.143823e+000
1.571726e+003,2.082633e+000
1.577512e+003,1.996186e+000
1.583297e+003,2.118585e+000
1.589083e+003,2.231044e+000
1.594868e+003,2.153338e+000
1.600654e+003,2.159839e+000
1.606439e+003,2.189270e+000
1.612225e+003,2.195234e+000
1.618010e+003,2.053625e+000
1.623796e+003,2.143685e+000
1.629581e+003,2.195716e+000
1.635367e+003,1.981484e+000
1.641152e+003,2.163494e+000
1.646938e+003,2.053157e+000
1.652723e+003,1.994914e+000
1.658509e+003,2.182655e+000
1.664294e+003,2.245580e+000
1.670080e+003,2.165079e+000
1.675865e+003,2.133842e+000
1.681651e+003,2.127313e+000
1.687436e+003,2.127687e+000
1.693222e+003,2.199776e+000
1.699007e+003,2.066055e+000
1.704793e+003,2.109508e+000
1.710578e+003,2.169486e+000
1.716364e+003,2.046551e+000
1.722149e+003,2.202905e+000
1.727935e+003,2.159688e+000
1.733720e+003,2.283784e+000
1.739506e+003,2.205860e+000
1.745291e+003,2.164940e+000
1.751077e+003,2.222255e+000
1.756862e+003,2.269304e+000
1.762648e+003,2.121203e+000
1.768433e+003,2.197536e+000
1.774219e+003,2.175657e+000
1.780004e+003,2.178439e+000
1.785790e+003,2.250630e+000
1.791575e+003,2.260711e+000
1.797361e+003,2.187850e+000
1.803146e+003,2.236465e+000
1.808932e+003,2.300224e+000
1.814717e+003,2.217804e+000
1.820503e+003,2.244601e+000
1.826288e+003,2.164953e+000
1.832074e+003,2.223928e+000
1.837859e+003,2.162915e+000
1.843645e+003,2.262405e+000
1.849430e+003,2.223737e+000
1.855216e+003,2.238465e+000
1.861001e+003,2.262600e+000
1.866786e+003,2.292799e+000
1.872572e+003,2.171666e+000
1.878358e+003,2.163531e+000
1.884143e+003,2.222735e+000
1.889929e+003,2.202417e+000
1.895714e+003,2.269670e+000
1.901500e+003,2.237470e+000
1.907285e+003,2.260870e+000
1.913071e+003,2.293095e+000
1.918856e+003,2.270072e+000
1.924641e+003,2.197053e+000
1.930427e+003,2.278868e+000
1.936213e+003,2.309211e+000
1.941998e+003,2.270174e+000
1.947783e+003,2.203722e+000
1.953569e+003,2.365139e+000
1.959354e+003,2.254541e+000
1.965140e+003,2.306289e+000
1.970925e+003,2.230858e+000
1.976711e+003,2.212459e+000
1.982496e+003,2.273934e+000
1.988282e+003,2.344946e+000
1.994068e+003,2.221236e+000
1.999853e+003,2.316719e+000
2.005638e+003,2.250575e+000
2.011424e+003,2.197290e+000
2.017209e+003,2.268030e+000
2.022995e+003,2.289531e+000
2.028780e+003,2.234341e+000
2.034566e+003,2.265869e+000
2.040351e+003,2.265052e+000
2.046137e+003,2.172664e+000
2.051922e+003,2.150025e+000
2.057708e+003,2.000247e+000
2.063493e+003,1.834644e+000
2.069279e+003,1.679494e+000
2.075064e+003,1.572034e+000
2.080850e+003,1.487179e+000
2.086635e+003,1.410139e+000
2.092421e+003,1.350507e+000
2.098206e+003,1.307681e+000
2.103992e+003,1.256866e+000
2.109777e+003,1.223988e+000
2.115563e+003,1.194813e+000
2.121348e+003,1.170639e+000
2.127134e+003,1.138011e+000
2.132919e+003,1.111225e+000
2.138705e+003,1.099661e+000
2.144490e+003,1.079037e+000
2.150276e+003,1.050973e+000
2.156061e+003,1.037560e+000
2.161847e+003,1.020091e+000
2.167632e+003,9.961218e-001
2.173418e+003,9.831120e-001
2.179203e+003,9.632360e-001
2.184989e+003,9.481930e-001
2.190774e+003,9.272739e-001
2.196560e+003,9.132825e-001
2.202345e+003,8.938247e-001
2.208131e+003,8.786423e-001
2.213916e+003,8.583590e-001
2.219702e+003,8.436059e-001
2.225487e+003,8.316761e-001
2.231273e+003,8.154549e-001
2.237058e+003,8.013875e-001
2.242844e+003,7.863300e-001
2.248629e+003,7.748824e-001
2.254415e+003,7.650114e-001
2.260200e+003,7.500065e-001
2.265986e+003,7.388696e-001
2.271771e+003,7.272640e-001
2.277557e+003,7.114918e-001
2.283342e+003,7.011726e-001
2.289128e+003,6.912240e-001
2.294913e+003,6.825848e-001
2.300699e+003,6.704072e-001
2.306484e+003,6.622187e-001
2.312270e+003,6.500276e-001
2.318055e+003,6.397758e-001
2.323841e+003,6.357943e-001
2.329626e+003,6.248049e-001
2.335412e+003,6.136461e-001
2.341197e+003,6.055989e-001
2.346983e+003,5.961850e-001
2.352768e+003,5.909307e-001
2.358554e+003,5.891154e-001
2.364339e+003,5.751731e-001
2.370125e+003,5.635083e-001
2.375910e+003,5.464714e-001
2.381696e+003,5.306392e-001
2.387481e+003,5.214800e-001
2.393267e+003,5.114530e-001
2.399052e+003,5.053181e-001
2.404838e+003,4.950368e-001
2.410623e+003,4.870164e-001
2.416409e+003,4.824033e-001
2.422194e+003,4.730077e-001
2.427980e+003,4.656995e-001
2.433765e+003,4.597374e-001
2.439551e+003,4.518499e-001
2.445336e+003,4.470076e-001
2.451122e+003,4.422117e-001
2.456907e+003,4.354046e-001
2.462693e+003,4.298222e-001
2.468478e+003,4.277685e-001
2.474264e+003,4.248467e-001
2.480049e+003,4.257946e-001
2.485834e+003,4.256892e-001
2.491620e+003,4.216758e-001
2.497406e+003,4.141545e-001
2.503191e+003,4.013340e-001
2.508977e+003,3.896866e-001
2.514762e+003,3.798577e-001
2.520548e+003,3.723324e-001
2.526333e+003,3.641547e-001
2.532119e+003,3.576147e-001
2.537904e+003,3.503458e-001
2.543689e+003,3.447472e-001
2.549475e+003,3.404192e-001
2.555260e+003,3.363711e-001
2.561046e+003,3.302422e-001
2.566832e+003,3.257696e-001
2.572617e+003,3.207393e-001
2.578403e+003,3.160990e-001
2.584188e+003,3.107648e-001
2.589973e+003,3.044115e-001
2.595759e+003,2.990008e-001
2.601544e+003,2.956591e-001
2.607330e+003,2.895936e-001
2.613115e+003,2.860349e-001
2.618901e+003,2.820880e-001
2.624687e+003,2.773767e-001
2.630472e+003,2.743411e-001
2.636258e+003,2.707585e-001
2.642043e+003,2.675367e-001
2.647828e+003,2.626869e-001
2.653614e+003,2.582343e-001
2.659399e+003,2.532497e-001
2.665185e+003,2.471816e-001
2.670970e+003,2.427182e-001
2.676756e+003,2.351185e-001
2.682542e+003,2.309330e-001
2.688327e+003,2.236579e-001
2.694112e+003,2.164231e-001
2.699898e+003,2.104226e-001
2.705683e+003,2.021815e-001
2.711469e+003,1.961906e-001
2.717254e+003,1.908850e-001
2.723040e+003,1.848912e-001
2.728825e+003,1.802168e-001
2.734611e+003,1.770184e-001
2.740396e+003,1.728619e-001
2.746182e+003,1.696206e-001
2.751967e+003,1.655547e-001
2.757753e+003,1.639648e-001
2.763538e+003,1.611733e-001
2.769324e+003,1.578214e-001
2.775109e+003,1.548186e-001
2.780895e+003,1.529396e-001
2.786680e+003,1.513073e-001
2.792466e+003,1.492231e-001
2.798251e+003,1.471874e-001
2.804037e+003,1.465087e-001
2.809822e+003,1.431907e-001
2.815608e+003,1.389325e-001
2.821393e+003,1.380797e-001
2.827179e+003,1.351941e-001
2.832964e+003,1.326492e-001
2.838750e+003,1.301361e-001
2.844535e+003,1.295488e-001
2.850321e+003,1.306874e-001
2.856106e+003,1.258865e-001
2.861892e+003,1.215876e-001
2.867677e+003,1.179043e-001
2.873463e+003,1.133540e-001
2.879248e+003,1.108300e-001
2.885034e+003,1.080551e-001
2.890819e+003,1.062238e-001
2.896605e+003,1.023994e-001
2.902390e+003,1.003253e-001
2.908176e+003,9.900595e-002
2.913961e+003,9.877727e-002
2.919747e+003,9.759963e-002
2.925532e+003,9.385049e-002
2.931318e+003,9.077983e-002
2.937103e+003,8.774065e-002
2.942889e+003,8.463015e-002
2.948674e+003,8.280163e-002
2.954460e+003,8.144266e-002
2.960245e+003,8.014961e-002
2.966031e+003,7.683094e-002
2.971816e+003,7.453676e-002
2.977602e+003,7.133929e-002
2.983387e+003,6.816160e-002
2.989173e+003,6.434363e-002
2.994958e+003,5.907650e-002
3.000744e+003,5.505468e-002
3.006529e+003,4.919071e-002
3.012315e+003,4.550446e-002
3.018100e+003,3.855215e-002
3.023886e+003,3.477865e-002
3.029671e+003,3.049769e-002
3.035457e+003,2.714739e-002
3.041242e+003,2.260371e-002
3.047028e+003,1.933785e-002
3.052813e+003,1.714645e-002
3.058599e+003,1.349779e-002
3.064384e+003,1.070241e-002
3.070170e+003,7.499089e-003
3.075955e+003,5.872676e-003
3.081741e+003,3.452002e-003
3.087526e+003,1.237396e-003
3.093312e+003,1.657681e-004
3.099097e+003,-1.780811e-003
3.104883e+003,-2.979902e-003
3.110668e+003,-5.136919e-003
3.116454e+003,-6.729305e-003
3.122239e+003,-8.055652e-003
3.128025e+003,-9.587483e-003
3.133810e+003,-1.042083e-002
3.139595e+003,-1.235513e-002
3.145381e+003,-1.329407e-002
3.151167e+003,-1.360175e-002
3.156952e+003,-1.500280e-002
3.162738e+003,-1.616382e-002
3.168523e+003,-1.769281e-002
3.174309e+003,-1.971483e-002
3.180094e+003,-1.956706e-002
3.185880e+003,-2.073064e-002
3.191665e+003,-2.275661e-002
3.197450e+003,-2.375044e-002
3.203236e+003,-2.403062e-002
3.209021e+003,-2.381882e-002
3.214807e+003,-2.388673e-002
3.220593e+003,-2.495222e-002
3.226378e+003,-2.727699e-002
3.232164e+003,-2.765073e-002
3.237949e+003,-2.733253e-002
3.243734e+003,-2.964208e-002
3.249520e+003,-3.061113e-002
3.255305e+003,-3.226922e-002
3.261091e+003,-3.342584e-002
3.266876e+003,-3.228512e-002
3.272662e+003,-3.454683e-002
3.278448e+003,-3.458221e-002
3.284233e+003,-3.564351e-002
3.290019e+003,-3.671399e-002
3.295804e+003,-3.667931e-002
3.301589e+003,-3.750872e-002
3.307375e+003,-3.870492e-002
3.313160e+003,-3.942816e-002
3.318946e+003,-4.153077e-002
3.324731e+003,-4.099161e-002
3.330517e+003,-4.099471e-002
3.336302e+003,-4.202178e-002
3.342088e+003,-4.295329e-002
3.347873e+003,-4.255341e-002
3.353659e+003,-4.398236e-002
3.359444e+003,-4.360090e-002
3.365230e+003,-4.423258e-002
3.371015e+003,-4.579511e-002
3.376801e+003,-4.586947e-002
3.382586e+003,-4.764254e-002
3.388372e+003,-4.670813e-002
3.394157e+003,-4.829346e-002
3.399943e+003,-4.697905e-002
3.405728e+003,-4.742770e-002
3.411514e+003,-4.827309e-002
3.417299e+003,-4.910523e-002
3.423085e+003,-4.856989e-002
3.428870e+003,-4.914101e-002
3.434656e+003,-5.015072e-002
3.440441e+003,-4.918575e-002
3.446227e+003,-4.975760e-002
3.452012e+003,-4.941069e-002
3.457798e+003,-4.949936e-002
3.463583e+003,-4.972494e-002
3.469369e+003,-4.956467e-002
3.475154e+003,-5.083995e-002
3.480940e+003,-4.930366e-002
3.486725e+003,-4.866881e-002
3.492511e+003,-5.058313e-002
3.498296e+003,-5.129961e-002
3.504082e+003,-5.390065e-002
3.509867e+003,-5.204117e-002
3.515653e+003,-5.020902e-002
3.521438e+003,-4.703243e-002
3.527224e+003,-4.860891e-002
3.533009e+003,-5.104215e-002
3.538795e+003,-5.169638e-002
3.544580e+003,-5.416780e-002
3.550366e+003,-5.722799e-002
3.556151e+003,-5.227736e-002
3.561937e+003,-4.518024e-002
3.567722e+003,-3.873460e-002
3.573508e+003,-3.619100e-002
3.579293e+003,-5.428352e-002
3.585079e+003,-6.254216e-002
3.590864e+003,-5.966698e-002
3.596650e+003,-5.151920e-002
3.602435e+003,-5.929435e-002
3.608221e+003,-6.792944e-002
3.614006e+003,-6.904610e-002
3.619792e+003,-6.894182e-002
3.625577e+003,-7.219698e-002
3.631363e+003,-6.956265e-002
3.637148e+003,-7.062720e-002
3.642934e+003,-7.286131e-002
3.648719e+003,-7.497326e-002
3.654505e+003,-7.567327e-002
3.660290e+003,-7.408181e-002
3.666076e+003,-7.556648e-002
3.671861e+003,-7.184929e-002
3.677647e+003,-7.204942e-002
3.683432e+003,-7.513710e-002
3.689218e+003,-7.409541e-002
3.695003e+003,-7.607378e-002
3.700789e+003,-7.721552e-002
3.706574e+003,-7.642101e-002
3.712360e+003,-7.650971e-002
3.718145e+003,-7.769823e-002
3.723931e+003,-7.522182e-002
3.729716e+003,-7.586229e-002
3.735502e+003,-7.786876e-002
3.741287e+003,-7.709404e-002
3.747073e+003,-7.744232e-002
3.752858e+003,-7.474251e-002
3.758644e+003,-8.097382e-002
3.764429e+003,-7.949748e-002
3.770215e+003,-7.974113e-002
3.776000e+003,-7.865166e-002
3.781786e+003,-7.880294e-002
3.787571e+003,-7.817335e-002
3.793356e+003,-7.998687e-002
3.799142e+003,-8.141661e-002
3.804927e+003,-8.215317e-002
3.810713e+003,-8.076583e-002
3.816499e+003,-8.087275e-002
3.822284e+003,-7.712220e-002
3.828070e+003,-8.082599e-002
3.833855e+003,-8.047123e-002
3.839641e+003,-7.860566e-002
3.845426e+003,-7.934440e-002
3.851211e+003,-8.571307e-002
3.856997e+003,-7.957318e-002
3.862782e+003,-8.335096e-002
3.868568e+003,-8.423160e-002
3.874354e+003,-8.005075e-002
3.880139e+003,-8.496521e-002
3.885925e+003,-8.277639e-002
3.891710e+003,-8.294635e-002
3.897495e+003,-8.405335e-002
3.903281e+003,-8.290154e-002
3.909066e+003,-8.381721e-002
3.914852e+003,-8.399092e-002
3.920637e+003,-8.437901e-002
3.926423e+003,-8.335198e-002
3.932208e+003,-8.285265e-002
3.937994e+003,-8.518026e-002
3.943780e+003,-8.514976e-002
3.949565e+003,-8.343428e-002
3.955350e+003,-8.489332e-002
3.961136e+003,-8.610913e-002
3.966921e+003,-8.605856e-002
3.972707e+003,-8.658940e-002
3.978492e+003,-8.781350e-002
3.984278e+003,-8.608647e-002
3.990063e+003,-8.751854e-002
3.995849e+003,-8.834715e-002
4.001634e+003,-8.816546e-002
4.007420e+003,-8.806898e-002
4.013205e+003,-8.845136e-002
4.018991e+003,-8.602064e-002
4.024776e+003,-8.761529e-002
4.030562e+003,-8.773865e-002
4.036347e+003,-8.942720e-002
4.042133e+003,-8.867963e-002
4.047918e+003,-8.865300e-002
4.053704e+003,-8.922099e-002
4.059489e+003,-8.905570e-002
4.065275e+003,-8.978603e-002
4.071060e+003,-8.962476e-002
4.076846e+003,-8.994094e-002
4.082631e+003,-8.988189e-002
4.088417e+003,-9.156752e-002
4.094202e+003,-9.001371e-002
4.099988e+003,-8.943168e-002
4.105773e+003,-9.098627e-002
4.111559e+003,-8.948909e-002
4.117344e+003,-9.011518e-002
4.123130e+003,-9.164517e-002
4.128916e+003,-8.990713e-002
4.134701e+003,-8.977808e-002
4.140486e+003,-9.113109e-002
4.146272e+003,-9.137305e-002
4.152057e+003,-9.012662e-002
4.157843e+003,-9.208810e-002
4.163628e+003,-9.113643e-002
4.169414e+003,-9.342398e-002
4.175199e+003,-9.070315e-002
4.180985e+003,-9.135665e-002
4.186770e+003,-9.058170e-002
4.192556e+003,-9.259468e-002
4.198341e+003,-9.086931e-002
4.204127e+003,-9.150332e-002
4.209912e+003,-9.069062e-002
4.215698e+003,-9.252384e-002
4.221483e+003,-9.132816e-002
4.227269e+003,-9.202839e-002
4.233054e+003,-9.225640e-002
4.238840e+003,-9.215101e-002
4.244625e+003,-9.217373e-002
4.250411e+003,-9.300442e-002
4.256196e+003,-9.226618e-002
4.261982e+003,-9.371100e-002
4.267767e+003,-9.251913e-002
4.273553e+003,-9.143633e-002
4.279338e+003,-9.338988e-002
4.285124e+003,-9.309706e-002
4.290909e+003,-9.297682e-002
4.296695e+003,-9.324975e-002
4.302480e+003,-9.276583e-002
4.308266e+003,-9.167270e-002
4.314051e+003,-9.399114e-002
4.319836e+003,-9.312432e-002
4.325622e+003,-9.376166e-002
4.331408e+003,-9.439092e-002
4.337193e+003,-9.270561e-002
4.342979e+003,-9.438092e-002
4.348764e+003,-9.463097e-002
4.354550e+003,-9.341484e-002
4.360335e+003,-9.224243e-002
4.366121e+003,-9.274282e-002
4.371906e+003,-9.268645e-002
4.377691e+003,-9.260874e-002
4.383477e+003,-9.374147e-002
4.389263e+003,-9.276963e-002
4.395048e+003,-9.218825e-002
4.400833e+003,-9.230562e-002
4.406619e+003,-9.342834e-002
4.412405e+003,-9.374259e-002
4.418190e+003,-9.448209e-002
4.423976e+003,-9.331190e-002
4.429761e+003,-9.412143e-002
4.435546e+003,-9.359779e-002
4.441332e+003,-9.335279e-002
4.447118e+003,-9.456805e-002
4.452903e+003,-9.423607e-002
4.458688e+003,-9.395453e-002
4.464474e+003,-9.400101e-002
4.470260e+003,-9.490564e-002
4.476045e+003,-9.294764e-002
4.481831e+003,-9.437948e-002
4.487616e+003,-9.390504e-002
4.493401e+003,-9.474967e-002
4.499187e+003,-9.477774e-002
4.504973e+003,-9.258401e-002
4.510758e+003,-9.445714e-002
4.516543e+003,-9.338462e-002
4.522329e+003,-9.616962e-002
4.528114e+003,-9.414359e-002
4.533900e+003,-9.535877e-002
4.539686e+003,-9.476842e-002
4.545471e+003,-9.336290e-002
4.551256e+003,-9.361914e-002
4.557042e+003,-9.425279e-002
4.562828e+003,-9.348127e-002
4.568613e+003,-9.454012e-002
4.574398e+003,-9.390907e-002
4.580184e+003,-9.410603e-002
4.585969e+003,-9.482861e-002
4.591755e+003,-9.466444e-002
4.597541e+003,-9.390961e-002
4.603326e+003,-9.406585e-002
4.609111e+003,-9.491504e-002
4.614897e+003,-9.419516e-002
4.620683e+003,-9.341725e-002
4.626468e+003,-9.236358e-002
4.632253e+003,-9.269748e-002
4.638039e+003,-9.408727e-002
4.643824e+003,-9.518673e-002
4.649610e+003,-9.415709e-002
4.655396e+003,-9.421842e-002
4.661181e+003,-9.569886e-002
4.666966e+003,-9.347036e-002
4.672752e+003,-9.376726e-002
4.678538e+003,-9.472577e-002
4.684323e+003,-9.386177e-002
4.690108e+003,-9.531379e-002
4.695894e+003,-9.492731e-002
4.701679e+003,-9.536550e-002
4.707465e+003,-9.270494e-002
4.713250e+003,-9.500290e-002
4.719036e+003,-9.677228e-002
4.724821e+003,-9.497050e-002
4.730607e+003,-9.762064e-002
4.736392e+003,-9.490215e-002
4.742178e+003,-9.546737e-002
4.747963e+003,-9.459087e-002
4.753749e+003,-9.585550e-002
4.759534e+003,-9.496304e-002
4.765320e+003,-9.410024e-002
4.771105e+003,-9.423458e-002
4.776891e+003,-9.440903e-002
4.782676e+003,-9.560722e-002
4.788462e+003,-9.484446e-002
4.794247e+003,-9.573460e-002
4.800033e+003,-9.403917e-002
4.805818e+003,-9.555883e-002
4.811604e+003,-9.581771e-002
4.817389e+003,-9.412222e-002
4.823175e+003,-9.747645e-002
4.828960e+003,-9.501028e-002
4.834746e+003,-9.702663e-002
4.840531e+003,-9.578855e-002
4.846317e+003,-9.607211e-002
4.852102e+003,-9.624210e-002
4.857888e+003,-9.585433e-002
4.863673e+003,-9.439161e-002
4.869458e+003,-9.718208e-002
4.875244e+003,-9.356120e-002
4.881030e+003,-9.533196e-002
4.886815e+003,-9.565308e-002
4.892601e+003,-9.652607e-002
4.898386e+003,-9.478011e-002
4.904172e+003,-9.535103e-002
4.909957e+003,-9.425391e-002
4.915743e+003,-9.331826e-002
4.921528e+003,-9.692451e-002
4.927313e+003,-9.617360e-002
4.933099e+003,-9.763698e-002
4.938885e+003,-9.454705e-002
4.944670e+003,-9.708771e-002
4.950456e+003,-9.567022e-002
4.956241e+003,-9.682813e-002
4.962027e+003,-9.532198e-002
4.967812e+003,-9.632269e-002
4.973598e+003,-9.351659e-002
4.979383e+003,-9.654501e-002
4.985168e+003,-9.736342e-002
4.990954e+003,-9.718576e-002
4.996740e+003,-9.537295e-002
5.002525e+003,-9.495173e-002
5.008311e+003,-9.550668e-002
5.014096e+003,-9.546969e-002
5.019882e+003,-9.737446e-002
5.025667e+003,-9.671095e-002
5.031453e+003,-9.636421e-002
5.037238e+003,-9.705246e-002
5.043023e+003,-9.661303e-002
5.048809e+003,-9.603652e-002
5.054595e+003,-9.798958e-002
5.060380e+003,-9.556680e-002
5.066166e+003,-9.606191e-002
5.071951e+003,-9.823468e-002
5.077736e+003,-9.623732e-002
5.083522e+003,-9.867081e-002
5.089308e+003,-9.602998e-002
5.095093e+003,-9.467976e-002
5.100878e+003,-9.594698e-002
5.106664e+003,-9.767362e-002
5.112450e+003,-9.648856e-002
5.118235e+003,-9.378529e-002
5.124021e+003,-9.498160e-002
5.129806e+003,-9.579499e-002
5.135591e+003,-9.752992e-002
5.141377e+003,-9.673466e-002
5.147163e+003,-9.660114e-002
5.152948e+003,-9.573030e-002
5.158733e+003,-9.279831e-002
5.164519e+003,-9.581250e-002
5.170305e+003,-9.694704e-002
5.176090e+003,-9.509680e-002
5.181875e+003,-9.544887e-002
5.187661e+003,-9.525318e-002
5.193446e+003,-9.577203e-002
5.199232e+003,-9.651103e-002
5.205018e+003,-9.582008e-002
5.210803e+003,-9.287268e-002
5.216588e+003,-9.425533e-002
5.222374e+003,-9.788013e-002
5.228160e+003,-9.320696e-002
5.233945e+003,-9.532698e-002
5.239730e+003,-9.256748e-002
5.245516e+003,-9.494353e-002
5.251301e+003,-9.415699e-002
5.257087e+003,-9.738524e-002
5.262873e+003,-9.244765e-002
5.268658e+003,-9.471772e-002
5.274443e+003,-9.368227e-002
5.280229e+003,-9.585889e-002
5.286014e+003,-9.415760e-002
5.291800e+003,-9.442670e-002
5.297585e+003,-9.306414e-002
5.303371e+003,-9.334702e-002
5.309156e+003,-9.720989e-002
5.314942e+003,-9.526188e-002
5.320728e+003,-9.423162e-002
5.326513e+003,-9.402428e-002
5.332298e+003,-9.736657e-002
5.338084e+003,-9.175680e-002
5.343869e+003,-9.551343e-002
5.349655e+003,-9.203897e-002
5.355440e+003,-9.364539e-002
5.361226e+003,-9.363377e-002
5.367011e+003,-9.456486e-002
5.372797e+003,-9.288298e-002
5.378583e+003,-9.441396e-002
5.384368e+003,-9.206171e-002
5.390153e+003,-9.487999e-002
5.395939e+003,-9.162194e-002
5.401724e+003,-9.417907e-002
5.407510e+003,-9.384143e-002
5.413295e+003,-9.234986e-002
5.419081e+003,-9.426005e-002
5.424866e+003,-9.516203e-002
5.430652e+003,-9.446351e-002
5.436438e+003,-9.141042e-002
5.442223e+003,-9.279107e-002
5.448008e+003,-9.140089e-002
5.453794e+003,-8.939846e-002
5.459579e+003,-9.557178e-002
5.465365e+003,-9.196115e-002
5.471150e+003,-9.210775e-002
5.476936e+003,-9.028370e-002
5.482721e+003,-9.362300e-002
5.488507e+003,-9.247115e-002
5.494292e+003,-9.051362e-002
5.500078e+003,-9.076007e-002
5.505863e+003,-9.360209e-002
5.511649e+003,-9.254925e-002
5.517434e+003,-9.009100e-002
5.523220e+003,-9.338954e-002
5.529005e+003,-9.497016e-002
5.534791e+003,-9.453079e-002
5.540576e+003,-9.372908e-002
5.546362e+003,-9.337308e-002
5.552147e+003,-9.007371e-002
5.557933e+003,-9.064709e-002
5.563718e+003,-9.301095e-002
5.569504e+003,-9.134376e-002
5.575289e+003,-9.015713e-002
5.581075e+003,-9.181074e-002
5.586860e+003,-9.234671e-002
5.592646e+003,-8.919989e-002
5.598431e+003,-9.151220e-002
5.604217e+003,-8.895396e-002
5.610002e+003,-9.463187e-002
5.615788e+003,-8.944330e-002
5.621573e+003,-8.878071e-002
5.627358e+003,-9.030695e-002
5.633144e+003,-9.014501e-002
5.638930e+003,-9.104235e-002
5.644715e+003,-8.775113e-002
5.650500e+003,-8.793607e-002
5.656286e+003,-8.604981e-002
5.662072e+003,-8.575297e-002
5.667857e+003,-8.744112e-002
5.673643e+003,-8.800004e-002
5.679428e+003,-8.644491e-002
5.685213e+003,-8.952250e-002
5.690999e+003,-8.526522e-002
5.696785e+003,-8.707770e-002
5.702570e+003,-8.842395e-002
5.708355e+003,-8.776453e-002
5.714141e+003,-8.384382e-002
5.719927e+003,-8.895034e-002
5.725712e+003,-8.097250e-002
5.731498e+003,-7.979506e-002
5.737283e+003,-8.453240e-002
5.743068e+003,-8.191754e-002
5.748854e+003,-8.580089e-002
5.754640e+003,-8.172455e-002
5.760425e+003,-7.763697e-002
5.766210e+003,-8.033862e-002
5.771996e+003,-8.523489e-002
5.777782e+003,-8.115420e-002
5.783567e+003,-8.266574e-002
5.789353e+003,-8.102290e-002
5.795138e+003,-8.289393e-002
5.800923e+003,-8.152203e-002
5.806709e+003,-8.170182e-002
5.812495e+003,-8.062346e-002
5.818280e+003,-7.863200e-002
5.824065e+003,-8.059118e-002
5.829851e+003,-8.053423e-002
5.835637e+003,-7.974783e-002
5.841422e+003,-7.430629e-002
5.847208e+003,-7.548414e-002
5.852993e+003,-7.816882e-002
5.858778e+003,-7.275819e-002
5.864564e+003,-7.408141e-002
5.870350e+003,-7.390778e-002
5.876135e+003,-7.049473e-002
5.881920e+003,-6.994940e-002
5.887706e+003,-6.983764e-002
5.893491e+003,-7.716031e-002
5.899277e+003,-7.047820e-002
5.905063e+003,-6.790858e-002
5.910848e+003,-6.755192e-002
5.916633e+003,-6.607378e-002
5.922419e+003,-6.842011e-002
5.928205e+003,-6.912014e-002
5.933990e+003,-6.643763e-002
5.939775e+003,-6.473602e-002
5.945561e+003,-6.566530e-002
5.951346e+003,-6.703870e-002
5.957132e+003,-6.229154e-002
5.962917e+003,-6.428517e-002
5.968703e+003,-6.500855e-002
5.974488e+003,-6.283651e-002
5.980274e+003,-5.999298e-002
5.986060e+003,-6.058356e-002
5.991845e+003,-5.735875e-002
5.997630e+003,-5.847147e-002
6.003416e+003,-5.788782e-002
6.009201e+003,-5.517691e-002
6.014987e+003,-5.832995e-002
6.020772e+003,-5.615273e-002
6.026558e+003,-5.164213e-002
6.032343e+003,-5.060150e-002
6.038129e+003,-5.237905e-002
6.043915e+003,-5.321005e-002
6.049700e+003,-5.091988e-002
6.055485e+003,-4.950019e-002
6.061271e+003,-5.216971e-002
6.067056e+003,-5.029396e-002
6.072842e+003,-4.068853e-002
6.078627e+003,-4.200264e-002
6.084413e+003,-3.589346e-002
6.090198e+003,-3.602776e-002
6.095984e+003,-3.817183e-002
6.101769e+003,-3.918415e-002
6.107555e+003,-4.031760e-002
6.113340e+003,-3.670306e-002
6.119126e+003,-2.996302e-002
6.124911e+003,-2.683079e-002
6.130697e+003,-2.989758e-002
6.136482e+003,-3.027225e-002
6.142268e+003,-2.657158e-002
6.148053e+003,-2.353211e-002
6.153839e+003,-2.534325e-002
6.159624e+003,-1.894037e-002
6.165410e+003,-2.148557e-002
6.171195e+003,-1.650268e-002
6.176981e+003,-1.502300e-002
6.182766e+003,-1.214991e-002
6.188552e+003,-1.170162e-002
6.194337e+003,-8.278588e-003
6.200123e+003,-5.402624e-003
6.205908e+003,-5.359916e-003
6.211694e+003,-3.395883e-003
6.217479e+003,-4.981126e-003
6.223265e+003,1.792259e-004
6.229050e+003,-2.122276e-003
6.234835e+003,4.128012e-003
6.240621e+003,8.795631e-003
6.246407e+003,6.839054e-003
6.252192e+003,1.107066e-002
6.257978e+003,7.704472e-003
6.263763e+003,9.270271e-003
6.269549e+003,1.716144e-002
6.275334e+003,1.899021e-002
6.281120e+003,2.829533e-002
6.286905e+003,2.121896e-002
6.292690e+003,2.694551e-002
6.298476e+003,3.505503e-002
6.304262e+003,3.211719e-002
6.310047e+003,3.622254e-002
6.315833e+003,4.018854e-002
6.321618e+003,4.591211e-002
6.327404e+003,5.168602e-002
6.333189e+003,4.297975e-002
6.338975e+003,5.671055e-002
6.344760e+003,4.510395e-002
6.350545e+003,4.806969e-002
6.356331e+003,5.732172e-002
6.362117e+003,5.490519e-002
6.367902e+003,6.010246e-002
6.373688e+003,6.543779e-002
6.379473e+003,6.584682e-002
6.385259e+003,7.028913e-002
6.391044e+003,7.769307e-002
6.396830e+003,7.752810e-002
6.402615e+003,7.682931e-002
6.408400e+003,7.029419e-002
6.414186e+003,8.583196e-002
6.419972e+003,9.297874e-002
6.425757e+003,9.202002e-002
6.431542e+003,9.901689e-002
6.437328e+003,9.924182e-002
6.443113e+003,1.079665e-001
6.448899e+003,1.107173e-001
6.454685e+003,1.136875e-001
6.460470e+003,1.158709e-001
6.466255e+003,1.255360e-001
6.472041e+003,1.236233e-001
6.477827e+003,1.201758e-001
6.483612e+003,1.292857e-001
6.489397e+003,1.352736e-001
6.495183e+003,1.410558e-001
6.500968e+003,1.474627e-001
6.506754e+003,1.528665e-001
6.512540e+003,1.506040e-001
6.518325e+003,1.523169e-001
6.524110e+003,1.611647e-001
6.529896e+003,1.581275e-001
6.535682e+003,1.677204e-001
6.541467e+003,1.693888e-001
6.547252e+003,1.694152e-001
6.553038e+003,1.797380e-001
6.558823e+003,1.853913e-001
6.564609e+003,1.922636e-001
6.570395e+003,1.915402e-001
6.576180e+003,1.948712e-001
6.581965e+003,1.946938e-001
6.587751e+003,2.185646e-001
6.593537e+003,2.097792e-001
6.599322e+003,2.205881e-001
6.605107e+003,2.240887e-001
6.610893e+003,2.263425e-001
6.616678e+003,2.325512e-001
6.622464e+003,2.352067e-001
6.628250e+003,2.542506e-001
6.634035e+003,2.526135e-001
6.639820e+003,2.526633e-001
6.645606e+003,2.606740e-001
6.651391e+003,2.692483e-001
6.657177e+003,2.652926e-001
6.662962e+003,2.826436e-001
6.668748e+003,2.870911e-001
6.674533e+003,2.981669e-001
6.680319e+003,3.205136e-001
6.686104e+003,2.966221e-001
6.691890e+003,3.128417e-001
6.697675e+003,3.016072e-001
6.703461e+003,3.149026e-001
6.709246e+003,3.407743e-001
6.715032e+003,3.582914e-001
6.720817e+003,3.402192e-001
6.726603e+003,3.355340e-001
6.732388e+003,3.460702e-001
6.738174e+003,3.496538e-001
6.743959e+003,3.560430e-001
6.749745e+003,3.819432e-001
6.755530e+003,3.979696e-001
6.761316e+003,3.805228e-001
6.767101e+003,3.928976e-001
6.772887e+003,4.077600e-001
6.778672e+003,4.072555e-001
6.784458e+003,4.195774e-001
6.790243e+003,4.169521e-001
6.796029e+003,4.268229e-001
6.801814e+003,4.299961e-001
6.807600e+003,4.488435e-001
6.813385e+003,4.702987e-001
6.819171e+003,4.538422e-001
6.824956e+003,4.733639e-001
6.830742e+003,4.874217e-001
6.836527e+003,4.819789e-001
6.842313e+003,4.675141e-001
6.848098e+003,4.970350e-001
6.853884e+003,5.104091e-001
6.859669e+003,4.989810e-001
6.865455e+003,5.095908e-001
6.871240e+003,5.204605e-001
6.877026e+003,5.295690e-001
6.882811e+003,5.409361e-001
6.888597e+003,5.497884e-001
6.894382e+003,6.196746e-001
6.900167e+003,5.519683e-001
6.905953e+003,5.817949e-001
6.911739e+003,5.729336e-001
6.917524e+003,5.973178e-001
6.923310e+003,5.821100e-001
6.929095e+003,5.771844e-001
6.934881e+003,6.511434e-001
6.940666e+003,5.955647e-001
6.946452e+003,6.591939e-001
6.952237e+003,6.504350e-001
6.958022e+003,6.345654e-001
6.963808e+003,6.061336e-001
6.969594e+003,5.949020e-001
6.975379e+003,6.454797e-001
6.981165e+003,6.688451e-001
6.986950e+003,7.339192e-001
6.992735e+003,6.899391e-001
6.998521e+003,6.783040e-001
7.004307e+003,6.833647e-001
7.010092e+003,7.338650e-001
7.015877e+003,6.904917e-001
7.021663e+003,7.417879e-001
7.027449e+003,7.249351e-001
7.033234e+003,7.211323e-001
7.039020e+003,8.376583e-001
7.044805e+003,7.338564e-001
7.050590e+003,8.607992e-001
7.056376e+003,8.122060e-001
7.062162e+003,8.374544e-001
7.067947e+003,8.441617e-001
7.073732e+003,8.014621e-001
7.079518e+003,8.419943e-001
7.085304e+003,8.294691e-001
7.091089e+003,8.044008e-001
7.096875e+003,8.149003e-001
7.102660e+003,8.108173e-001
7.108445e+003,8.525888e-001
7.114231e+003,8.941891e-001
7.120017e+003,8.890092e-001
7.125802e+003,7.635821e-001
7.131587e+003,9.138077e-001
7.137373e+003,9.085616e-001
7.143159e+003,8.617787e-001
7.148944e+003,9.018338e-001
7.154729e+003,8.837814e-001
7.160515e+003,9.862164e-001
7.166300e+003,1.015327e+000
7.172086e+003,9.633323e-001
7.177872e+003,1.003099e+000
7.183657e+003,9.768425e-001
7.189442e+003,9.250502e-001
7.195228e+003,8.532378e-001
7.201013e+003,1.070753e+000
7.206799e+003,8.992755e-001
7.212584e+003,1.062783e+000
7.218370e+003,1.004106e+000
7.224155e+003,1.089952e+000
7.229941e+003,9.656152e-001
7.235727e+003,1.041413e+000
7.241512e+003,1.049201e+000
7.247297e+003,1.029198e+000
7.253083e+003,9.987615e-001
7.258868e+003,1.231419e+000
7.264654e+003,1.157586e+000
7.270439e+003,1.054402e+000
7.276225e+003,1.113766e+000
7.282010e+003,1.145101e+000
7.287796e+003,9.477423e-001
7.293582e+003,1.424366e+000
7.299367e+003,1.112495e+000
7.305152e+003,1.115134e+000
7.310938e+003,1.083950e+000
7.316723e+003,1.144753e+000
7.322509e+003,1.154843e+000
7.328294e+003,1.161120e+000
7.334080e+003,1.119514e+000
7.339865e+003,1.030728e+000
7.345651e+003,1.051471e+000
7.351437e+003,1.212335e+000
7.357222e+003,1.480115e+000
7.363007e+003,1.126885e+000
7.368793e+003,1.030675e+000
7.374578e+003,1.068443e+000
7.380364e+003,1.111184e+000
7.386149e+003,1.127146e+000
7.391935e+003,8.746328e-001
7.397720e+003,1.231028e+000
7.403506e+003,1.259354e+000
7.409291e+003,1.296900e+000
7.415077e+003,1.501339e+000
7.420862e+003,1.162079e+000
7.426648e+003,1.376913e+000
7.432433e+003,1.234057e+000
7.438219e+003,1.022710e+000
7.444004e+003,1.303032e+000
7.449790e+003,9.959289e-001
7.455575e+003,1.399220e+000
7.461361e+003,1.471601e+000
7.467146e+003,1.318220e+000
7.472932e+003,1.422933e+000
7.478717e+003,1.132833e+000
7.484503e+003,1.206087e+000
7.490288e+003,1.022230e+000
7.496074e+003,1.287380e+000
7.501859e+003,1.688663e+000
7.507645e+003,1.152639e+000
7.513430e+003,1.524177e+000
7.519216e+003,1.072899e+000
7.525001e+003,1.327534e+000
7.530787e+003,6.000000e+000
7.536572e+003,1.231714e+000
7.542357e+003,1.225487e+000
7.548143e+003,1.518912e+000
7.553929e+003,1.932015e+000
7.559714e+003,1.102033e+000
7.565500e+003,1.225865e+000
7.571285e+003,1.100065e+000
7.577071e+003,1.219085e+000
7.582856e+003,1.338876e+000
7.588642e+003,1.060892e+000
7.594427e+003,1.543909e+000
7.600212e+003,1.105881e+000
7.605998e+003,1.294388e+000
7.611784e+003,1.601647e+000
7.617569e+003,1.216884e+000
7.623354e+003,1.219634e+000
7.629140e+003,1.626301e+000
7.634926e+003,1.794981e+000
7.640711e+003,1.651119e+000
7.646497e+003,1.261324e+000
7.652282e+003,1.097842e+000
7.658067e+003,1.215408e+000
7.663853e+003,1.350664e+000
7.669639e+003,1.391525e+000
7.675424e+003,9.897913e-001
7.681209e+003,2.329421e+000
7.686995e+003,1.453972e+000
7.692781e+003,1.329547e+000
7.698566e+003,1.144289e+000
7.704352e+003,1.576266e+000
7.710137e+003,6.000000e+000
7.715922e+003,1.800309e+000
7.721708e+003,1.314817e+000
7.727494e+003,9.938073e-001
7.733279e+003,1.815665e+000
7.739064e+003,6.000000e+000
7.744850e+003,1.047371e+000
7.750635e+003,1.207144e+000
7.756421e+003,6.000000e+000
7.762207e+003,1.619077e+000
7.767992e+003,1.136945e+000
7.773777e+003,1.458686e+000
7.779563e+003,1.318554e+000
7.785349e+003,2.654103e+000
7.791134e+003,1.081159e+000
7.796919e+003,1.239448e+000
7.802705e+003,1.345508e+000
7.808490e+003,9.596908e-001
7.814276e+003,2.843968e+000
7.820062e+003,1.012609e+000
7.825847e+003,1.346762e+000
7.831632e+003,1.618284e+000
7.837418e+003,1.518758e+000
7.843204e+003,1.066324e+000
7.848989e+003,1.101203e+000
7.854774e+003,6.000000e+000
7.860560e+003,9.278042e-001
7.866345e+003,1.606427e+000
7.872131e+003,1.825706e+000
7.877917e+003,8.833158e-001
7.883702e+003,9.874718e-001
7.889487e+003,1.044519e+000
7.895273e+003,1.307836e+000
7.901059e+003,2.678803e+000
7.906844e+003,1.033770e+000
7.912629e+003,1.803966e+000
7.918415e+003,9.473267e-001
7.924200e+003,1.273580e+000
7.929986e+003,1.012917e+000
7.935771e+003,2.941421e+000
7.941557e+003,1.565688e+000
7.947342e+003,1.324214e+000
7.953128e+003,6.000000e+000
7.958914e+003,1.401061e+000
7.964699e+003,1.097839e+000
7.970484e+003,1.410894e+000
7.976270e+003,6.000000e+000
7.982055e+003,1.551226e+000
7.987841e+003,1.461551e+000
7.993626e+003,1.137903e+000
7.999412e+003,1.038108e+000
8.005197e+003,8.851252e-001
8.010983e+003,1.075446e+000
8.016768e+003,1.698765e+000
8.022554e+003,1.461464e+000
8.028339e+003,9.370351e-001
8.034125e+003,1.464236e+000
8.039910e+003,6.000000e+000
8.045696e+003,1.090614e+000
8.051481e+003,7.905721e-001
8.057267e+003,6.000000e+000
8.063052e+003,6.213569e-001
8.068838e+003,1.017369e+000
8.074623e+003,1.348495e+000
8.080409e+003,9.806319e-001
8.086194e+003,6.000000e+000
8.091979e+003,8.328103e-001
8.097765e+003,1.088541e+000
8.103551e+003,6.000000e+000
8.109336e+003,6.155116e-001
8.115122e+003,9.361600e-001
8.120907e+003,6.000000e+000
8.126693e+003,8.111517e-001
8.132478e+003,1.049790e+000
8.138264e+003,7.105389e-001
8.144049e+003,1.105333e+000
8.149834e+003,9.035532e-001
8.155620e+003,1.450275e+000
8.161406e+003,7.035470e-001
8.167191e+003,1.637067e+000
8.172977e+003,4.848524e-001
8.178762e+003,1.060686e+000
8.184548e+003,7.162615e-001
8.190333e+003,1.341974e+000
8.196118e+003,9.203994e-001
8.201904e+003,6.460361e-001
8.207689e+003,7.152948e-001
8.213476e+003,6.000000e+000
8.219261e+003,1.250006e+000
8.225046e+003,9.104263e-001
8.230832e+003,8.832601e-001
8.236617e+003,8.847330e-001
8.242402e+003,6.000000e+000
8.248188e+003,6.000000e+000
8.253974e+003,7.390396e-001
8.259759e+003,8.752128e-001
8.265545e+003,6.577761e-001
8.271330e+003,6.000000e+000
8.277115e+003,7.799129e-001
8.282901e+003,7.416663e-001
8.288687e+003,6.000000e+000
8.294472e+003,6.000000e+000
8.300258e+003,7.141096e-001
8.306043e+003,7.642164e-001
8.311828e+003,6.300715e-001
8.317614e+003,1.075824e+000
8.323399e+003,9.198020e-001
8.329185e+003,9.236887e-001
8.334971e+003,8.036956e-001
8.340756e+003,1.067821e+000
8.346542e+003,1.349348e+000
8.352327e+003,6.000000e+000
8.358112e+003,6.000000e+000
8.363898e+003,1.594574e-001
8.369684e+003,8.701404e-001
8.375469e+003,6.000000e+000
8.381255e+003,6.000000e+000
8.387040e+003,3.951517e-001
8.392825e+003,6.000000e+000
8.398611e+003,3.029095e+000
8.404396e+003,8.344944e-001
8.410182e+003,8.035440e-001
8.415968e+003,1.332299e+000
8.421753e+003,1.207139e+000
8.427538e+003,4.800730e-001
8.433324e+003,6.000000e+000
8.439109e+003,1.145869e+000
8.444895e+003,7.607697e-001
8.450681e+003,6.000000e+000
8.456466e+003,1.158748e+000
8.462251e+003,6.000000e+000
8.468037e+003,3.982198e-001
8.473822e+003,9.174045e-001
8.479608e+003,6.513299e-001
8.485394e+003,8.788367e-001
8.491179e+003,4.784428e-001
8.496965e+003,6.000000e+000
8.500821e+003,8.511117e-001